n,t_ms,temp_C,pressure_hPa,altitude_m,max_altitude_m,descent_count,teensy_trigger,accel_x_g,accel_y_g,accel_z_g,gyro_x_dps,gyro_y_dps,gyro_z_dps,mag_x_uT,mag_y_uT,mag_z_uT,humidity_pct,sound_db,pitch_deg,roll_deg,heading_deg,t_s,dt_s,pitch_logged_deg,roll_logged_deg,pressure_ref_hpa,altitude_baro_m,altitude_logged_m,a_lin_ms2,altitude_fused_m,v_fused_ms,v_baro_ms,a_baro_ms2,pos_x_m,pos_y_m,pos_z_m,yaw_deg
0,10677,33.28,951.36,-0.14,-0.14,0,0,0.0659,0.0328,0.9944,-1.46,0.55,-1.1,69,68,54,,,-3.7895000000000003,1.8892,314.6701,0.0,0.5,-3.7895,1.8892,951.34,0.0,0.0,0.1105469319774387,0.0,0.35468722626833316,0.35468722626833316,-0.8867158016179699,0.0,0.0,0.0,314.6701
1,11177,33.28,951.34,-0.01,-0.01,0,0,0.0642,0.0448,1.0011,-0.18,-0.12,0.73,66,69,56,,,-3.6657,2.5623,313.2356,0.5,0.5,-3.6657,2.5623,951.34,0.17734361313416658,0.13,0.18097239444941,0.17734361313416658,0.2672253908151415,-0.0886706745406518,-0.5320308394024997,0.0,0.0,0.17734361313416658,313.2356
2,11677,33.29,951.37,-0.22,-0.01,0,0,0.0759,0.0295,0.998,0.67,2.38,-2.56,68,68,54,,,-4.3472,1.6931,313.8907,1.0,0.5,-4.3472,1.6931,951.34,-0.0886706745406518,-0.07999999999999999,0.13937747814413265,-0.0886706745406518,0.16549488221341635,-0.17734361313416658,0.3546849622154702,0.0,0.0,-0.0886706745406518,313.8907
3,12177,33.22,951.36,-0.16,-0.01,0,0,0.0774,0.0336,0.9952,-0.37,0.06,0.67,66,68,54,,,-4.4446,1.9337,313.0449,1.5,0.5,-4.4446,1.9337,951.34,0.0,-0.01999999999999999,0.11211459041328664,0.0,0.23637288083831257,0.2660142876748184,0.6207083063379781,0.0,0.0,0.0,313.0449
4,12677,33.22,951.34,0.05,0.05,0,0,0.0735,0.0325,0.9979,-1.83,-0.18,0.06,68,67,54,,,-4.2103,1.8654000000000002,314.468,2.0,0.5,-4.2103,1.8654,951.34,0.17734361313416658,0.19,0.14071980222891917,0.17734361313416658,0.3522767523697853,0.44336469320381156,-0.44335790080898496,0.0,0.0,0.17734361313416658,314.468
5,13177,33.22,951.31,0.28,0.28,0,0,0.0586,0.0344,0.9907,-0.98,-0.18,0.92,68,68,56,,,-3.3831,1.9887,314.4277,2.5,0.5,-3.3831,1.9887,951.34,0.44336469320381156,0.42000000000000004,0.0779031708809663,0.44336469320381156,0.20170435416212346,-0.17734361313416658,-0.6207128346454904,0.0,0.0,0.44336469320381156,314.4277
6,13677,33.24,951.36,-0.17,0.28,0,0,0.0697,0.0385,0.9873,-0.31,0.18,-1.22,69,68,52,,,-4.0351,2.2331,314.7513,3.0,0.5,-4.0351,2.2331,951.34,0.0,-0.03,0.04070510656209153,0.0,0.08892189114821988,-0.17734814144167887,0.35468722626833316,0.0,0.0,0.0,314.7513
7,14177,33.27,951.33,0.11,0.28,0,0,0.0823,0.0304,0.9979,0.06,2.38,-0.24,68,69,51,,,-4.7125,1.7449,313.3932,3.5,0.5,-4.7125,1.7449,951.34,0.2660165517621327,0.25,0.13435019795184366,0.2660165517621327,0.16317919779415,0.17734361313416658,0.17734814144167887,0.0,0.0,0.2660165517621327,313.3932
8,14677,33.29,951.34,0.04,0.28,0,0,0.1234,-0.0077,0.9879,16.24,6.59,40.53,67,63,54,,,-7.1198,-0.4466,313.2854,4.0,0.5,-7.1198,-0.4466,951.34,0.17734361313416658,0.18000000000000002,-0.013414905123947551,0.17734361313416658,0.10431449682145082,0.0,3.0188421451526892e-06,0.0,0.0,0.17734361313416658,313.2854
9,15177,33.28,951.33,0.11,0.28,0,0,0.1313,0.0061,0.9557,-3.54,-3.6,0.79,63,57,54,,,-7.8225,0.3657,314.2106,4.5,0.5,-7.8225,0.3657,951.34,0.2660165517621327,0.25,-0.3416018210917709,0.2660165517621327,0.014791268175814151,0.17734663197631173,-0.44335714617227295,0.0,0.0,0.2660165517621327,314.21060000000006
10,15677,33.28,951.32,0.16,0.28,0,0,0.1343,-0.056,0.9602,-3.42,-10.86,-4.58,63,62,58,,,-7.9488,-3.3378,309.5916,5.0,0.5,-7.9488,-3.3378,951.34,0.3546902451104783,0.30000000000000004,-0.3017314895578782,0.3546902451104783,-0.23850203312617427,-0.44335714617227295,-0.53203687708679,0.0,0.0,0.3546902451104783,309.5916
11,16177,33.28,951.38,-0.33,0.28,0,0,0.1039,-0.0271,1.0148,-14.47,23.44,-1.83,62,65,56,,,-5.8438,-1.5297,310.0327,5.5,0.5,-5.8438,-1.5297,951.34,-0.17734059441014027,-0.19,0.2738512783965904,-0.17734059441014027,-0.18594767765541215,-0.3546902451104783,0.44335714617227295,0.0,0.0,-0.17734059441014027,310.0327
12,16677,33.28,951.36,-0.17,0.28,0,0,0.2151,0.1621,0.9427,-10.38,-0.24,2.2,74,57,57,,,-12.6735,9.7568,323.6052,6.0,0.5,-12.6735,9.7568,951.34,0.0,-0.03,-0.5537927352310825,0.0,-0.3085626968473023,0.0,0.4433616743321367,0.0,0.0,0.0,323.6052
13,17177,33.28,951.38,-0.34,0.28,0,0,0.2562,0.23,0.9531,21.73,-22.64,-10.13,80,56,56,,,-14.644300000000001,13.5671,329.6821,6.5,0.5,-14.6443,13.5671,951.34,-0.17734059441014027,-0.2,-0.48478908193329767,-0.17734059441014027,-0.3377476821354146,0.08867142922165838,-0.26600523175866364,0.0,0.0,-0.17734059441014027,329.6821
14,17677,33.27,951.35,-0.12,0.28,0,0,0.1333,0.1084,0.9678,-0.37,-11.05,4.88,71,63,54,,,-7.7942,6.3909,318.5892,7.0,0.5,-7.7942,6.3909,951.34,0.08867142922165838,0.020000000000000018,-0.18045662976270532,0.08867142922165838,-0.3739857419307327,-0.26600523175866364,-1.3300027675012904,0.0,0.0,0.08867142922165838,318.5892
15,18177,33.27,951.41,-0.58,0.28,0,0,0.0554,0.1178,0.9594,2.75,-1.95,-14.22,69,67,52,,,-3.2803,7.0,317.8345,7.5,0.5,-3.2803,7.0,951.34,-0.4433458261688039,-0.43999999999999995,-0.18404177308587605,-0.4433458261688039,-0.7244481984089911,-1.241331338279632,-0.35464723165949064,0.0,0.0,-0.4433458261688039,317.8345
58,39658,32.21,951.49,-0.91,0.12,0,0,-0.0302,-0.0857,0.9916,-0.31,0.18,-0.18,119,105,37,,,1.738,-4.9396,318.1653,28.981,0.5,1.738,-4.9396,951.34,-1.1526599090579737,-0.77,0.06134899334973515,-1.1526599090579737,-0.6693999556288005,-0.6206524634181543,1.4186553317451778,0.0,0.0,-1.1526599090579737,318.1653
59,40158,32.23,951.48,-0.88,0.12,0,0,-0.0302,-0.0856,0.9907,-0.24,0.18,-0.24,120,106,34,,,1.7396,-4.9383,318.1861,29.481,0.5,1.7396,-4.9383,951.34,-1.0639982895869582,-0.74,0.05252783658053227,-1.0639982895869582,-0.36964936040384105,0.17732399346554573,0.7979779659208863,0.0,0.0,-1.0639982895869582,318.1861
60,40658,32.24,951.47,-0.73,0.12,0,0,-0.03,-0.0851,0.9927,-0.24,0.18,-0.18,121,106,37,,,1.7247,-4.8997,318.376,29.981,0.5,1.7247,-4.8997,951.34,-0.9753359155924279,-0.59,0.07210925536262269,-0.9753359155924279,-0.16328798764744246,0.17732550250273205,-0.08866086495734393,0.0,0.0,-0.9753359155924279,318.376
61,41158,32.26,951.46,-0.72,0.12,0,0,-0.0305,-0.0858,0.9906,-0.18,0.12,-0.18,119,108,30,,,1.757,-4.9503,317.4909,30.481,0.5,1.757,-4.9503,951.34,-0.8866727870842261,-0.58,0.05132853756813932,-0.8866727870842261,-0.0621947697395146,0.0886631285082018,-0.17732550250273205,0.0,0.0,-0.8866727870842261,317.4909
62,41658,32.27,951.46,-0.66,0.12,0,0,-0.0303,-0.0864,0.9926,-0.24,0.12,-0.12,121,107,33,,,1.7419,-4.974700000000001,318.1726,30.981,0.5,1.7419,-4.9747,951.34,-0.8866727870842261,-0.52,0.07122776825970556,-0.8866727870842261,-0.017720590406441215,0.0,7.545432012534548e-07,0.0,0.0,-0.8866727870842261,318.1726
63,42158,32.21,951.46,-0.7,0.12,0,0,-0.0295,-0.0859,0.9904,-0.24,0.18,-0.24,119,107,30,,,1.6997,-4.957,317.7413,31.481,0.5,1.6997,-4.957,951.34,-0.8866727870842261,-0.5599999999999999,0.05033217919325264,-0.8866727870842261,0.034518293810591086,0.08866388305140305,0.0,0.0,0.0,-0.8866727870842261,317.7413
64,42658,32.23,951.45,-0.58,0.12,0,0,-0.0303,-0.085,0.9917,-0.18,0.18,-0.24,119,107,32,,,1.7437,-4.8989,317.7225,31.981,0.5,1.7437,-4.8989,951.34,-0.7980089040328231,-0.43999999999999995,0.062032252053483755,-0.7980089040328231,0.043689613224888645,0.0,0.26599919481261614,0.0,0.0,-0.7980089040328231,317.7225
65,43158,32.24,951.46,-0.64,0.12,0,0,-0.0291,-0.0859,0.9913,-0.31,0.06,-0.18,120,108,34,,,1.6752,-4.9525,317.6538,32.481,0.5,1.6752,-4.9525,951.34,-0.8866727870842261,-0.5,0.059491282894134745,-0.8866727870842261,0.16717786240264376,0.3546630778640192,0.0,0.0,0.0,-0.8866727870842261,317.6538
66,43658,32.26,951.41,-0.2,0.12,0,0,-0.0303,-0.0854,0.9911,-0.24,0.12,-0.12,120,106,34,,,1.7446,-4.9248,318.1883,32.981,0.5,1.7446,-4.9248,951.34,-0.4433458261688039,-0.06,0.05628487294985418,-0.4433458261688039,0.13021353258504725,0.0,-0.9753155412821735,0.0,0.0,-0.4433458261688039,318.1883
67,44158,32.34,951.46,-0.69,0.12,0,0,-0.0309,-0.0857,0.9911,-0.31,0.18,-0.12,119,104,36,,,1.7791,-4.942,318.4533,33.481,0.5,1.7791,-4.942,951.34,-0.8866727870842261,-0.5499999999999999,0.0558089089269308,-0.8866727870842261,-0.10147216310704299,-0.6206524634181543,-0.0886631285082018,0.0,0.0,-0.8866727870842261,318.4533
68,44658,32.34,951.48,-0.89,0.12,0,0,-0.0306,-0.0856,0.9906,-0.18,0.18,-0.24,122,107,34,,,1.7628,-4.9388,318.397,33.981,0.5,1.7628,-4.9388,951.34,-1.0639982895869582,-0.75,0.051177154515463286,-1.0639982895869582,-0.08014343340227482,-0.0886631285082018,0.7979779659208863,0.0,0.0,-1.0639982895869582,318.397
69,45158,32.35,951.47,-0.76,0.12,0,0,-0.0294,-0.0848,0.9916,-0.24,0.18,-0.18,120,105,38,,,1.6921,-4.887900000000001,318.3836,34.481,0.5,1.6921,-4.8879,951.34,-0.9753359155924279,-0.62,0.061831715788214614,-0.9753359155924279,0.026290117162132337,0.17732550250273205,0.1773262570164036,0.0,0.0,-0.9753359155924279,318.3836
70,45658,32.37,951.46,-0.67,0.12,0,0,-0.0308,-0.0861,0.9899,-0.31,0.18,-0.18,120,108,36,,,1.7754,-4.971,317.6391,34.981,0.5,1.7754,-4.971,951.34,-0.8866727870842261,-0.53,0.04429554433683319,-0.8866727870842261,0.06184630238976655,0.0886631285082018,0.0886684103204538,0.0,0.0,-0.8866727870842261,317.6391
71,46158,32.37,951.46,-0.71,0.12,0,0,-0.0314,-0.0852,0.9916,-0.18,0.12,-0.24,120,106,39,,,1.8071,-4.910900000000001,318.1251,35.481,0.5,1.8071,-4.9109,951.34,-0.8866727870842261,-0.57,0.060077702447333625,-0.8866727870842261,0.14992140668335086,0.26599391282318585,-0.1773262570164036,0.0,0.0,-0.8866727870842261,318.1251
72,46658,32.4,951.43,-0.39,0.12,0,0,-0.0302,-0.0854,0.9913,-0.24,0.12,-0.18,121,108,36,,,1.7385,-4.9238,317.8725,35.981,0.5,1.7385,-4.9238,951.34,-0.6206788742610403,-0.25,0.0583319443542393,-0.6206788742610403,0.08983720973757973,-0.0886631285082018,-0.5319878256463717,0.0,0.0,-0.6206788742610403,317.8725
73,47158,32.4,951.47,-0.73,0.12,0,0,-0.0311,-0.0858,0.9915,-0.18,0.12,-0.24,121,103,38,,,1.7899000000000003,-4.9458,319.1604,36.481,0.5,1.7899,-4.9458,951.34,-0.9753359155924279,-0.59,0.05955702356159105,-0.9753359155924279,-0.008920823262145106,-0.26599391282318585,0.26599014006780664,0.0,0.0,-0.9753359155924279,319.1604
74,47658,32.42,951.46,-0.68,0.12,0,0,-0.0314,-0.0865,0.9908,-0.18,0.18,-0.24,117,106,31,,,1.8083000000000002,-4.9895,317.5216,36.981,0.5,1.8083,-4.9895,951.34,-0.8866727870842261,-0.54,0.05263778892350052,-0.8866727870842261,0.0707077179862717,0.17732701155960484,0.26599391282318585,0.0,0.0,-0.8866727870842261,317.5216
75,48158,32.44,951.45,-0.56,0.12,0,0,-0.0304,-0.0859,0.9912,-0.18,0.12,-0.24,121,106,34,,,1.7501,-4.953000000000001,318.4214,37.481,0.5,1.7501,-4.953,951.34,-0.7980089040328231,-0.42000000000000004,0.05731253299938191,-0.7980089040328231,0.06624265632397511,0.0,3.0182121779631643e-06,0.0,0.0,-0.7980089040328231,318.4214
76,48658,32.44,951.46,-0.73,0.12,0,0,-0.0306,-0.0851,0.9905,-0.24,0.18,-0.18,120,105,30,,,1.763,-4.9106,318.5181,37.981,0.5,1.763,-4.9106,951.34,-0.8866727870842261,-0.59,0.05005673496021265,-0.8866727870842261,0.11995735912664855,0.1773300297717828,0.0,0.0,0.0,-0.8866727870842261,318.5181
77,49158,32.45,951.43,-0.41,0.12,0,0,-0.0298,-0.0851,0.9911,-0.18,0.12,-0.18,120,105,34,,,1.7159,-4.9076,318.4483,38.481,0.5,1.7159,-4.9076,951.34,-0.6206788742610403,-0.26999999999999996,0.056663525784547725,-0.6206788742610403,0.09885941467928161,0.0,-0.44332394259496866,0.0,0.0,-0.6206788742610403,318.4483
78,49658,32.46,951.46,-0.66,0.12,0,0,-0.0312,-0.0861,0.9913,-0.24,0.18,-0.18,122,109,35,,,1.7960000000000003,-4.964,317.8705,38.981,0.5,1.796,-4.964,951.34,-0.8866727870842261,-0.52,0.05759545959337156,-0.8866727870842261,-0.0035598746237503476,-0.26599391282318585,0.17732852064600735,0.0,0.0,-0.8866727870842261,317.8705
79,50158,32.48,951.46,-0.65,0.12,0,0,-0.0289,-0.085,0.9905,-0.24,0.12,-0.18,124,106,30,,,1.6651,-4.9048,319.1667,39.481,0.5,1.6651,-4.9048,951.34,-0.8866727870842261,-0.51,0.05160045887129924,-0.8866727870842261,0.07393641008993529,0.17732852064600735,0.7093208737386081,0.0,0.0,-0.8866727870842261,319.1667
80,50658,32.49,951.44,-0.52,0.12,0,0,-0.0302,-0.0848,0.9912,-0.18,0.06,-0.12,120,107,34,,,1.7388,-4.8899,317.9296,39.981,0.5,1.7388,-4.8899,951.34,-0.7093442664382188,-0.38,0.057183759891435246,-0.7093442664382188,0.21612784699557602,0.44332696091542223,3.0182810806245186e-06,0.0,0.0,-0.7093442664382188,317.9296
81,51158,32.51,951.41,-0.26,0.12,0,0,-0.0304,-0.0854,0.9902,-0.24,0.12,-0.18,122,108,33,,,1.752,-4.9293,318.1527,40.481,0.5,1.752,-4.9293,951.34,-0.4433458261688039,-0.12,0.04739902005607148,-0.4433458261688039,0.21899541765810385,0.17733153892708797,-0.6206600090076586,0.0,0.0,-0.4433458261688039,318.1527
82,51658,32.52,951.42,-0.36,0.12,0,0,-0.0306,-0.0854,0.991,-0.24,0.18,-0.18,121,106,36,,,1.7621,-4.9253,318.3954,40.981,0.5,1.7621,-4.9253,951.34,-0.5320127275111308,-0.21999999999999997,0.05502744595938558,-0.5320127275111308,0.10522841106111899,-0.17733304809223638,-0.7979787204739308,0.0,0.0,-0.5320127275111308,318.3954
83,52158,32.53,951.43,-0.39,0.12,0,0,-0.0304,-0.0859,0.9905,-0.18,0.12,-0.12,118,108,33,,,1.7514,-4.9565,317.2046,41.481,0.5,1.7514,-4.9565,951.34,-0.6206788742610403,-0.25,0.050474059782043335,-0.6206788742610403,-0.11990543321418715,-0.6206471815468428,0.17733304809223638,0.0,0.0,-0.6206788742610403,317.2046
84,52658,32.53,951.49,-0.99,0.12,0,0,-0.0302,-0.0857,0.9911,-0.24,0.18,-0.18,121,106,38,,,1.7388,-4.942,318.3584,41.981,0.5,1.7388,-4.942,951.34,-1.1526599090579737,-0.85,0.05646436603238761,-1.1526599090579737,-0.061115500131995563,0.0,0.7093088010178583,0.0,0.0,-1.1526599090579737,318.3584
85,53158,32.55,951.43,-0.38,0.12,0,0,-0.0305,-0.0858,0.9906,-0.18,0.12,-0.18,121,105,36,,,1.757,-4.9503,318.6543,42.481,0.5,1.757,-4.9503,951.34,-0.6206788742610403,-0.24,0.05132853756813932,-0.6206788742610403,0.005919718925054558,0.08866161947101547,0.0,0.0,0.0,-0.6206788742610403,318.6543
86,53658,32.58,951.48,-0.87,0.12,0,0,-0.0305,-0.0852,0.9911,-0.24,0.18,-0.12,120,103,31,,,1.7562,-4.9134,319.0353,42.981,0.5,1.7562,-4.9134,951.34,-1.0639982895869582,-0.73,0.056040750395954284,-1.0639982895869582,0.022626729415354468,0.0,0.08866388303171657,0.0,0.0,-1.0639982895869582,319.0353
87,54158,32.58,951.43,-0.42,0.12,0,0,-0.0303,-0.0858,0.9911,-0.31,0.18,-0.18,122,105,33,,,1.7446,-4.9478,318.9321,43.481,0.5,1.7446,-4.9478,951.34,-0.6206788742610403,-0.27999999999999997,0.05640003560819187,-0.6206788742610403,0.09299299898054428,0.17732550250273205,-0.35465704133138765,0.0,0.0,-0.6206788742610403,318.9321
88,54658,32.59,951.46,-0.67,0.12,0,0,-0.0303,-0.0839,0.9908,-0.24,0.18,-0.24,122,105,35,,,1.7454,-4.840200000000001,318.9117,43.981,0.5,1.7454,-4.8402,951.34,-0.8866727870842261,-0.53,0.05292898125632828,-0.8866727870842261,-0.038580687371323585,-0.35465704133138765,-0.088661619451329,0.0,0.0,-0.8866727870842261,318.9117
89,55158,32.62,951.47,-0.78,0.12,0,0,-0.0305,-0.0857,0.9911,-0.18,0.18,-0.24,120,106,34,,,1.7561,-4.942,318.1886,44.481,0.5,1.7561,-4.942,951.34,-0.9753359155924279,-0.64,0.05618434013784793,-0.9753359155924279,0.0225622828155346,0.08866388305140305,0.7979802294126848,0.0,0.0,-0.9753359155924279,318.1886
90,55658,32.58,951.45,-0.55,0.12,0,0,-0.0302,-0.085,0.9907,-0.24,0.12,-0.18,122,108,33,,,1.7396,-4.9038,318.153,44.981,0.5,1.7396,-4.9038,951.34,-0.7980089040328231,-0.41000000000000003,0.0523558752715447,-0.7980089040328231,0.1802678763279703,0.4433231880812971,7.545432012534548e-07,0.0,0.0,-0.7980089040328231,318.153
91,56158,32.59,951.42,-0.37,0.12,0,0,-0.0309,-0.0847,0.9922,-0.18,0.18,-0.24,120,105,35,,,1.7773,-4.8793,318.4464,45.481,0.5,1.7773,-4.8793,951.34,-0.5320127275111308,-0.22999999999999998,0.06626993754977513,-0.5320127275111308,0.17182344260010668,0.0886646375946043,-0.6206547270083851,0.0,0.0,-0.5320127275111308,318.4464
92,56658,32.62,951.44,-0.49,0.12,0,0,-0.0304,-0.0859,0.9907,-0.18,0.18,-0.24,122,108,30,,,1.751,-4.9555,318.196,45.981,0.5,1.751,-4.9555,951.34,-0.7093442664382188,-0.35,0.05242790811464382,-0.7093442664382188,0.07291441812925642,-0.17733153892708797,-0.35465289139791856,0.0,0.0,-0.7093442664382188,318.196
93,57158,32.64,951.44,-0.53,0.12,0,0,-0.0309,-0.0853,0.9913,-0.24,0.12,-0.24,121,105,31,,,1.7788,-4.9181,318.7391,46.481,0.5,1.7788,-4.9181,951.34,-0.7093442664382188,-0.39,0.057647880142892904,-0.7093442664382188,-0.0208371791339695,-0.26598825380331426,2.263676359137712e-06,0.0,0.0,-0.7093442664382188,318.7391
96,58658,32.71,951.5,-1.02,0.12,0,0,-0.0309,-0.0851,0.9902,-0.31,0.12,-0.31,122,107,33,,,1.7808,-4.9121,318.4178,47.981,1.5,1.7808,-4.9121,951.34,-1.2413207740448473,-0.88,0.04684391108342924,-1.2413207740448473,-0.08662473194815205,-0.1773270115743697,0.35465006190766923,0.0,0.0,-1.2413207740448473,318.4178
97,59158,32.71,951.48,-0.89,0.12,0,0,-0.0303,-0.0848,0.9911,-0.24,0.18,-0.24,121,105,37,,,1.7447,-4.8904,318.6431,48.481,0.5,1.7447,-4.8904,951.34,-1.0639982895869582,-0.75,0.05611359882611508,-1.0639982895869582,0.10872533498061171,0.4433118700120242,0.26598938556889995,0.0,0.0,-1.0639982895869582,318.6431
98,59658,32.74,951.45,-0.63,0.12,0,0,-0.0299,-0.0853,0.9912,-0.24,0.24,-0.24,122,106,39,,,1.7215,-4.9186,318.5749,48.981,0.5,1.7215,-4.9186,951.34,-0.7980089040328231,-0.49,0.05760503348166282,-0.7980089040328231,0.1212393591458055,0.08866237399453025,-0.620638881571629,0.0,0.0,-0.7980089040328231,318.5749
99,60158,32.75,951.47,-0.76,0.12,0,0,-0.0304,-0.0845,0.9901,-0.18,0.12,-0.24,121,106,39,,,1.7523000000000002,-4.8781,318.3531,49.481,0.5,1.7523,-4.8781,951.34,-0.9753359155924279,-0.62,0.046165443093344416,-0.9753359155924279,0.03710571660845019,-0.17732701155960484,-0.1773247479890605,0.0,0.0,-0.9753359155924279,318.3531
100,60658,32.78,951.47,-0.78,0.12,0,0,-0.0294,-0.0847,0.9906,-0.24,0.18,-0.18,120,105,38,,,1.6938,-4.8871,318.384,49.981,0.5,1.6938,-4.8871,951.34,-0.9753359155924279,-0.64,0.052034046800600475,-0.9753359155924279,0.01252770200765687,-0.08866237399453025,0.118218762229918,0.0,0.0,-0.9753359155924279,318.384
101,61158,32.79,951.48,-0.86,0.12,0,0,-0.0299,-0.0847,0.9916,-0.18,0.18,-0.31,121,106,36,,,1.7209,-4.8822,318.3925,50.481,0.5,1.7209,-4.8822,951.34,-1.0639982895869582,-0.72,0.06134190572846453,-1.0639982895869582,0.00909635347136381,-0.059108249329686835,0.13791958377534552,0.0,0.0,-1.0639982895869582,318.3925
103,62158,32.81,951.48,-0.86,0.12,0,0,-0.0303,-0.0847,0.9911,-0.24,0.12,-0.24,122,108,37,,,1.7448,-4.8847,318.0958,51.481,1.0,1.7448,-4.8847,951.34,-1.0639982895869582,-0.72,0.05608522463921467,-1.0639982895869582,0.09169928988953326,0.11821700166848803,0.03940549955312456,0.0,0.0,-1.0639982895869582,318.0958
104,62658,32.82,951.46,-0.7,0.12,0,0,-0.0303,-0.0851,0.9908,-0.18,0.18,-0.24,123,105,35,,,1.7452,-4.9091,319.1348,51.981,0.5,1.7452,-4.9091,951.34,-0.8866727870842261,-0.5599999999999999,0.0532681521563131,-0.8866727870842261,0.07888891064512654,0.0,-0.2955425041712201,0.0,0.0,-0.8866727870842261,319.1348
105,63158,32.85,951.48,-0.84,0.12,0,0,-0.0306,-0.0845,0.9901,-0.18,0.12,-0.24,119,106,37,,,1.7638,-4.8781,317.914,52.481,0.5,1.7638,-4.8781,951.34,-1.0639982895869582,-0.7,0.04597821757111281,-1.0639982895869582,0.008810178786211278,-0.17732550250273205,0.4433194153259179,0.0,0.0,-1.0639982895869582,317.914
106,63658,32.85,951.48,-0.85,0.12,0,0,-0.0309,-0.0851,0.99,-0.31,0.12,-0.18,121,108,36,,,1.7812000000000001,-4.913,317.8812,52.981,0.5,1.7812,-4.913,951.34,-1.0639982895869582,-0.71,0.04488995178263237,-1.0639982895869582,0.16860990822699093,0.4433194153259179,0.44331488805686714,0.0,0.0,-1.0639982895869582,317.8812
107,64158,32.86,951.43,-0.47,0.12,0,0,-0.0306,-0.0831,0.9902,-0.18,0.18,-0.24,118,104,36,,,1.7638,-4.7972,318.2278,53.481,0.5,1.7638,-4.7972,951.34,-0.6206788742610403,-0.32999999999999996,0.046563948537864136,-0.6206788742610403,0.21659105018199368,0.2659893855541351,-0.7979764566573055,0.0,0.0,-0.6206788742610403,318.2278
108,64658,32.89,951.45,-0.63,0.12,0,0,-0.0308,-0.0841,0.9901,-0.24,0.18,-0.12,119,107,31,,,1.7754,-4.8551,317.7463,53.981,0.5,1.7754,-4.8551,951.34,-0.7980089040328231,-0.49,0.045677612168079085,-0.7980089040328231,0.04140089040022629,-0.35465704133138765,-0.2659893855541351,0.0,0.0,-0.7980089040328231,317.7463
109,65158,32.89,951.47,-0.74,0.12,0,0,-0.0304,-0.0841,0.9918,-0.24,0.18,-0.24,122,105,37,,,1.7494,-4.8468,318.8811,54.481,0.5,1.7494,-4.8468,951.34,-0.9753359155924279,-0.6,0.06266167408130748,-0.9753359155924279,0.048487818293920015,0.0,0.17733304786584192,0.0,0.0,-0.9753359155924279,318.8811
110,65658,32.91,951.45,-0.63,0.12,0,0,-0.0305,-0.0846,0.9912,-0.18,0.12,-0.18,121,106,37,,,1.7561,-4.8784,318.3841,54.981,0.5,1.7561,-4.8784,951.34,-0.7980089040328231,-0.49,0.05684704452705222,-0.7980089040328231,-0.007833770783551158,-0.17732399346554573,-0.17732701155960484,0.0,0.0,-0.7980089040328231,318.3841
111,66158,32.92,951.49,-0.91,0.12,0,0,-0.031,-0.0853,0.9913,-0.18,0.24,-0.24,121,106,35,,,1.7846,-4.9181,318.4154,55.481,0.5,1.7846,-4.9181,951.34,-1.1526599090579737,-0.77,0.057553661464374364,-1.1526599090579737,-0.04514696388744426,-0.17732701155960484,0.6206396360853006,0.0,0.0,-1.1526599090579737,318.4154
112,66658,32.95,951.47,-0.81,0.12,0,0,-0.0305,-0.085,0.9899,-0.24,0.12,-0.18,120,105,34,,,1.7583,-4.9078,318.4556,55.981,0.5,1.7583,-4.9078,951.34,-0.9753359155924279,-0.67,0.044260058215889575,-0.9753359155924279,0.13242725768691863,0.44331564261975487,0.3546540231192097,0.0,0.0,-0.9753359155924279,318.4556
113,67158,32.96,951.44,-0.48,0.12,0,0,-0.0309,-0.0854,0.991,-0.31,0.12,-0.24,122,107,35,,,1.7793,-4.9253,318.386,56.481,0.5,1.7793,-4.9253,951.34,-0.7093442664382188,-0.33999999999999997,0.054745634340144594,-0.7093442664382188,0.16564238709119558,0.17732701155960484,-0.8866312852395097,0.0,0.0,-0.7093442664382188,318.3860000000001
114,67658,32.97,951.45,-0.64,0.12,0,0,-0.0299,-0.0857,0.9911,-0.31,0.18,-0.24,120,105,37,,,1.7216,-4.942,318.3986,56.981,0.5,1.7216,-4.942,951.34,-0.7980089040328231,-0.5,0.05674306539169524,-0.7980089040328231,-0.01842926768188949,-0.44331564261975487,-0.2659908946110079,0.0,0.0,-0.7980089040328231,318.3986
115,68158,32.95,951.49,-0.96,0.12,0,0,-0.0306,-0.0841,0.9923,-0.31,0.18,-0.24,121,108,32,,,1.76,-4.8444,317.9432,57.481,0.5,1.76,-4.8444,951.34,-1.1526599090579737,-0.82,0.06735965976586078,-1.1526599090579737,-0.019387586216440413,-0.08866388305140305,0.7979666476449054,0.0,0.0,-1.1526599090579737,317.9432
116,68658,32.96,951.46,-0.7,0.12,0,0,-0.0302,-0.0858,0.9904,-0.31,0.12,-0.18,121,107,34,,,1.7401,-4.9513,318.159,57.981,0.5,1.7401,-4.9513,951.34,-0.8866727870842261,-0.5599999999999999,0.04965479105115883,-0.8866727870842261,0.12184354121447619,0.35465100502515057,0.08866388305140305,0.0,0.0,-0.8866727870842261,318.15900000000005
117,69158,32.99,951.45,-0.61,0.12,0,0,-0.0308,-0.0852,0.9912,-0.24,0.12,-0.24,121,107,33,,,1.7733000000000003,-4.9129,318.1835,58.481,0.5,1.7733,-4.9129,951.34,-0.7980089040328231,-0.47,0.05673636539050475,-0.7980089040328231,0.10014114927315237,0.0,-0.26598636743054627,0.0,0.0,-0.7980089040328231,318.1835
118,69658,32.99,951.46,-0.72,0.12,0,0,-0.0299,-0.0848,0.9917,-0.31,0.18,-0.18,122,105,33,,,1.7207,-4.8875,318.9337,58.981,0.5,1.7207,-4.8875,951.34,-0.8866727870842261,-0.58,0.062347208252087144,-0.8866727870842261,0.11709804813099874,0.0886646375946043,-0.17732550250273205,0.0,0.0,-0.8866727870842261,318.9337
119,70158,33.04,951.44,-0.49,0.12,0,0,-0.031,-0.0847,0.9908,-0.31,0.24,-0.18,119,107,38,,,1.7856000000000003,-4.8861,317.6416,59.481,0.5,1.7856,-4.8861,951.34,-0.7093442664382188,-0.35,0.052497699827133135,-0.7093442664382188,0.03645609786213286,-0.17732550250273205,-0.4433186607433437,0.0,0.0,-0.7093442664382188,317.6416
120,70658,33.06,951.48,-0.86,0.12,0,0,-0.0305,-0.0839,0.9911,-0.18,0.06,-0.18,121,106,32,,,1.7564,-4.838700000000001,318.4636,59.981,0.5,1.7564,-4.8387,951.34,-1.0639982895869582,-0.72,0.055673150232026014,-1.0639982895869582,-0.07535622573081588,-0.3546540231487394,0.5319795256514714,0.0,0.0,-1.0639982895869582,318.4636
121,71158,33.07,951.48,-0.82,0.12,0,0,-0.0309,-0.084,0.9911,-0.24,0.18,-0.18,121,106,32,,,1.7794,-4.844500000000001,318.4668,60.481,0.5,1.7794,-4.8445,951.34,-1.0639982895869582,-0.6799999999999999,0.055325675520657674,-1.0639982895869582,0.08642241573592176,0.3546540231487394,0.8866395852245668,0.0,0.0,-1.0639982895869582,318.4668
122,71658,33.09,951.44,-0.55,0.12,0,0,-0.03,-0.0836,0.9911,-0.18,0.18,-0.18,120,107,34,,,1.7276,-4.821500000000001,317.9343,60.981,0.5,1.7276,-4.8215,951.34,-0.7093442664382188,-0.41000000000000003,0.05605550859132985,-0.7093442664382188,0.25362863404633357,0.5319855620758274,-0.5319825437947467,0.0,0.0,-0.7093442664382188,317.9343
123,72158,33.1,951.42,-0.34,0.12,0,0,-0.0315,-0.0842,0.991,-0.24,0.18,-0.18,119,104,36,,,1.8141,-4.8565,318.4689,61.481,0.5,1.8141,-4.8565,951.34,-0.5320127275111308,-0.2,0.05383714084148983,-0.5320127275111308,0.12792196276271656,-0.17732852064600735,-0.7979817385975196,0.0,0.0,-0.5320127275111308,318.4689
124,72658,33.13,951.46,-0.68,0.12,0,0,-0.0299,-0.0848,0.9907,-0.18,0.18,-0.18,121,107,33,,,1.7224,-4.8924,318.1769,61.981,0.5,1.7224,-4.8924,951.34,-0.8866727870842261,-0.54,0.05257770989780036,-0.8866727870842261,0.014141819633847086,-0.2659961765216923,3.01814327530181e-06,0.0,0.0,-0.8866727870842261,318.1769
125,73158,33.14,951.45,-0.58,0.12,0,0,-0.0309,-0.0842,0.9905,-0.18,0.24,-0.12,121,104,41,,,1.7804,-4.8589,318.8565,62.481,0.5,1.7804,-4.8589,951.34,-0.7980089040328231,-0.43999999999999995,0.04951967742130724,-0.7980089040328231,-0.033174061937910206,-0.17732550250273205,6.790967557179783e-06,0.0,0.0,-0.7980089040328231,318.8565
126,73658,33.14,951.48,-0.84,0.12,0,0,-0.0299,-0.0851,0.9917,-0.24,0.18,-0.18,119,106,34,,,1.7206,-4.9047,317.9491,62.981,0.5,1.7206,-4.9047,951.34,-1.0639982895869582,-0.7,0.06243254449360225,-1.0639982895869582,-0.08996832164545107,-0.2659893855541351,0.2659878764972623,0.0,0.0,-1.0639982895869582,317.9491
127,74158,33.17,951.48,-0.88,0.12,0,0,-0.0304,-0.084,0.9901,-0.24,0.12,-0.18,121,109,34,,,1.7524,-4.8494,317.6554,63.481,0.5,1.7524,-4.8494,951.34,-1.0639982895869582,-0.74,0.04602458630875611,-1.0639982895869582,-0.015083227662538598,0.08866237399453025,0.44331488805686714,0.0,0.0,-1.0639982895869582,317.65540000000004
128,74658,33.2,951.47,-0.76,0.12,0,0,-0.0303,-0.0845,0.9901,-0.24,0.24,-0.18,122,105,38,,,1.7465000000000002,-4.8781,318.8617,63.981,0.5,1.7465,-4.8781,951.34,-0.9753359155924279,-0.62,0.04625883453339341,-0.9753359155924279,0.06447262723701609,0.17732550250273205,0.08866463756507459,0.0,0.0,-0.9753359155924279,318.8617
129,75158,33.2,951.46,-0.7,0.12,0,0,-0.0309,-0.085,0.9906,-0.24,0.12,-0.24,122,107,34,,,1.7801,-4.9043,318.4033,64.481,0.5,1.7801,-4.9043,951.34,-0.8866727870842261,-0.5599999999999999,0.050723287720636695,-0.8866727870842261,0.11899851791809124,0.17732701155960484,-0.7092929560043615,0.0,0.0,-0.8866727870842261,318.4033
130,75658,33.21,951.45,-0.62,0.12,0,0,-0.0306,-0.0842,0.9902,-0.18,0.18,-0.18,119,107,30,,,1.7637,-4.8604,317.7589,64.981,0.5,1.7637,-4.8604,951.34,-0.7980089040328231,-0.48,0.046870557985250416,-0.7980089040328231,-0.08236661989339883,-0.5319674535016294,0.08866916496208743,0.0,0.0,-0.7980089040328231,317.7589
131,76158,33.22,951.52,-1.19,0.12,0,0,-0.0306,-0.0848,0.9915,-0.31,0.12,-0.24,122,108,28,,,1.7613,-4.8884,318.2327,65.481,0.5,1.7613,-4.8884,951.34,-1.4186402405858556,-1.0499999999999998,0.059741045586745534,-1.4186402405858556,0.053667994107213374,0.2659961765216923,1.152598790054662,0.0,0.0,-1.4186402405858556,318.2327
132,76658,33.25,951.42,-0.34,0.12,0,0,-0.0304,-0.0851,0.991,-0.24,0.18,-0.18,120,104,37,,,1.7506,-4.908100000000001,318.6726,65.981,0.5,1.7506,-4.9081,951.34,-0.5320127275111308,-0.2,0.05512871199333283,-0.5320127275111308,0.26103201225359735,0.6206313365530325,-0.5319923530433845,0.0,0.0,-0.5320127275111308,318.6726
133,77158,33.27,951.45,-0.61,0.12,0,0,-0.0305,-0.0848,0.9912,-0.18,0.12,-0.18,123,107,33,,,1.7561,-4.8899,318.6465,66.481,0.5,1.7561,-4.8899,951.34,-0.7980089040328231,-0.47,0.0569037370329632,-0.7980089040328231,0.10432386167282187,-0.2659961765216923,-0.975282341578183,0.0,0.0,-0.7980089040328231,318.6465
134,77658,33.27,951.45,-0.62,0.12,0,0,-0.03,-0.0844,0.9905,-0.18,0.18,-0.18,121,107,35,,,1.7286,-4.8704,318.1497,66.981,0.5,1.7286,-4.8704,951.34,-0.7980089040328231,-0.48,0.05041773169837127,-0.7980089040328231,-0.03186184999371183,-0.35465100502515057,0.08866916496208743,0.0,0.0,-0.7980089040328231,318.1497
135,78158,33.29,951.49,-0.96,0.12,0,0,-0.0306,-0.0851,0.99,-0.12,0.18,-0.24,121,107,33,,,1.7639000000000002,-4.913,318.1819,67.481,0.5,1.7639,-4.913,951.34,-1.1526599090579737,-0.82,0.04517190325717475,-1.1526599090579737,-0.0652929360966179,-0.17732701155960484,0.6206381269988981,0.0,0.0,-1.1526599090579737,318.1819
136,78658,33.29,951.47,-0.74,0.12,0,0,-0.0306,-0.084,0.9926,-0.18,0.12,-0.18,118,105,33,,,1.7595,-4.8372,318.0021,67.981,0.5,1.7595,-4.8372,951.34,-0.9753359155924279,-0.6,0.07026272914584733,-0.9753359155924279,0.06855465964211968,0.2659871219737475,0.08866463756507459,0.0,0.0,-0.9753359155924279,318.0021
137,79158,33.32,951.46,-0.73,0.12,0,0,-0.0304,-0.0848,0.9913,-0.24,0.18,-0.24,122,107,39,,,1.7501,-4.889400000000001,318.3241,68.481,0.5,1.7501,-4.8894,951.34,-0.8866727870842261,-0.59,0.05797419757031477,-0.8866727870842261,0.035473714286674625,-0.08866237399453025,-0.17732323892234447,0.0,0.0,-0.8866727870842261,318.3241
138,79658,33.34,951.48,-0.84,0.12,0,0,-0.0308,-0.084,0.9916,-0.18,0.18,-0.18,120,105,35,,,1.7727,-4.8421,318.4494,68.981,0.5,1.7727,-4.8421,951.34,-1.0639982895869582,-0.7,0.06030488077275627,-1.0639982895869582,0.07330539746583618,0.08866388305140305,0.44331639714326965,0.0,0.0,-1.0639982895869582,318.4494
139,80158,33.35,951.45,-0.61,0.12,0,0,-0.0312,-0.0835,0.9907,-0.24,0.18,-0.18,119,107,31,,,1.7974,-4.8177,317.7529,69.481,0.5,1.7974,-4.8177,951.34,-0.7980089040328231,-0.47,0.05099484857799899,-0.7980089040328231,0.18408655555280357,0.3546540231487394,-0.13299582457710457,0.0,0.0,-0.7980089040328231,317.7529
140,80658,33.32,951.44,-0.53,0.12,0,0,-0.031,-0.0837,0.9902,-0.24,0.18,-0.24,121,107,35,,,1.7868,-4.8316,318.1638,69.981,0.5,1.7868,-4.8316,951.34,-0.7093442664382188,-0.39,0.04635423844997205,-0.7093442664382188,0.12339846934329254,-0.044331941525701524,-0.24382492386292198,0.0,0.0,-0.7093442664382188,318.1638
143,82158,33.36,951.46,-0.72,0.12,0,0,-0.0288,-0.0834,0.991,-0.18,0.18,-0.12,120,107,35,,,1.6588,-4.8105,317.9085,71.481,1.5,1.6588,-4.8105,951.34,-0.8866727870842261,-0.58,0.05612642921825864,-0.8866727870842261,0.003237750522009447,-0.13299582457710457,0.06649791228855229,0.0,0.0,-0.8866727870842261,317.9085
144,82658,33.42,951.47,-0.82,0.12,0,0,-0.031,-0.0844,0.9915,-0.24,0.12,-0.12,121,107,33,,,1.7844,-4.8655,318.1896,71.981,0.5,1.7844,-4.8655,951.34,-0.9753359155924279,-0.6799999999999999,0.059251937082516734,-0.9753359155924279,0.05146377372597956,0.08866388305140305,0.17732738883120547,0.0,0.0,-0.9753359155924279,318.1896
145,83158,33.44,951.45,-0.57,0.12,0,0,-0.0305,-0.0833,0.991,-0.24,0.12,-0.12,121,106,36,,,1.7566000000000002,-4.8048,318.4072,72.481,0.5,1.7566,-4.8048,951.34,-0.7980089040328231,-0.42999999999999994,0.05452924349037533,-0.7980089040328231,0.06726278506547845,0.0443315642541009,-0.02216578212705045,0.0,0.0,-0.7980089040328231,318.4072
148,84658,33.48,951.46,-0.68,0.12,0,0,-0.0297,-0.0835,0.99,-0.31,0.18,-0.12,121,107,36,,,1.7123,-4.8211,318.1369,73.981,1.5,1.7123,-4.8211,951.34,-0.8866727870842261,-0.54,0.04555863108952876,-0.8866727870842261,0.08083968395828994,0.04433231879730215,-0.02216578212705045,0.0,0.0,-0.8866727870842261,318.1369
149,85158,33.49,951.44,-0.52,0.12,0,0,-0.03,-0.0841,0.9899,-0.31,0.12,-0.12,122,105,34,,,1.7297,-4.8561,318.9227,74.481,0.5,1.7297,-4.8561,951.34,-0.7093442664382188,-0.38,0.04447138423356237,-0.7093442664382188,0.06871691738338076,0.0,-0.39898634194604155,0.0,0.0,-0.7093442664382188,318.9227000000001
150,85658,33.52,951.46,-0.73,0.12,0,0,-0.03,-0.0836,0.99,-0.12,0.18,-0.18,120,107,37,,,1.7296,-4.8269,317.8896,74.981,0.5,1.7296,-4.8269,951.34,-0.8866727870842261,-0.59,0.04530847620751484,-0.8866727870842261,-0.05730390405815433,-0.3546540231487394,-0.2659871219737475,0.0,0.0,-0.8866727870842261,317.8896
151,86158,33.53,951.48,-0.9,0.12,0,0,-0.031,-0.0837,0.991,-0.24,0.12,-0.12,121,106,34,,,1.7854,-4.8278,318.4395,75.481,0.5,1.7854,-4.8278,951.34,-1.0639982895869582,-0.76,0.0541705903422363,-1.0639982895869582,-0.10880811324927328,-0.2659871219737475,0.3546540231487394,0.0,0.0,-1.0639982895869582,318.4395
152,86658,33.55,951.49,-0.93,0.12,0,0,-0.0305,-0.0835,0.9907,-0.06,0.12,-0.12,120,105,33,,,1.7571,-4.8177,318.4793,75.981,0.5,1.7571,-4.8177,951.34,-1.1526599090579737,-0.79,0.05165358808187637,-1.1526599090579737,-0.0553208794722234,0.0,0.354648741444763,0.0,0.0,-1.1526599090579737,318.4793
153,87158,33.56,951.48,-0.85,0.12,0,0,-0.0306,-0.0847,0.9906,-0.31,0.18,-0.18,118,110,32,,,1.7629,-4.8871,316.7145,76.481,0.5,1.7629,-4.8871,951.34,-1.0639982895869582,-0.71,0.0509198223595238,-1.0639982895869582,0.009646560962030822,0.08866161947101547,0.08866237399453025,0.0,0.0,-1.0639982895869582,316.7145
154,87658,33.58,951.48,-0.85,0.12,0,0,-0.0308,-0.0831,0.9894,-0.18,0.18,-0.24,121,108,30,,,1.7768,-4.801,317.9785,76.981,0.5,1.7768,-4.801,951.34,-1.0639982895869582,-0.71,0.0385596666874298,-1.0639982895869582,0.04883838753534056,0.08866237399453025,0.17732776608311962,0.0,0.0,-1.0639982895869582,317.9785
155,88158,33.59,951.47,-0.75,0.12,0,0,-0.0303,-0.0828,0.9912,-0.18,0.12,-0.12,119,105,32,,,1.7449,-4.775100000000001,318.2594,77.481,0.5,1.7449,-4.7751,951.34,-0.9753359155924279,-0.61,0.0565324777878142,-0.9753359155924279,0.14006621280421014,0.2659893855541351,-0.08866237399453025,0.0,0.0,-0.9753359155924279,318.2594
156,88658,33.6,951.45,-0.58,0.12,0,0,-0.0302,-0.0835,0.9913,-0.18,0.18,-0.18,119,106,34,,,1.7388,-4.8148,317.9611,77.981,0.5,1.7388,-4.8148,951.34,-0.7980089040328231,-0.43999999999999995,0.057795794749361584,-0.7980089040328231,0.11264274011926062,0.0,-0.08865935578235229,0.0,0.0,-0.7980089040328231,317.9611
157,89158,33.63,951.47,-0.8,0.12,0,0,-0.0303,-0.0825,0.9906,-0.18,0.12,-0.12,122,107,35,,,1.7459,-4.7608,318.3967,78.481,0.5,1.7459,-4.7608,951.34,-0.9753359155924279,-0.66,0.050588081157994555,-0.9753359155924279,0.1510678637227662,0.1773300297717828,0.4433231880812971,0.0,0.0,-0.9753359155924279,318.3967
158,89658,33.64,951.43,-0.42,0.12,0,0,-0.0297,-0.0834,0.9916,-0.06,0.18,-0.12,120,105,34,,,1.7096,-4.8076,318.4571,78.981,0.5,1.7096,-4.8076,951.34,-0.6206788742610403,-0.27999999999999997,0.06116282727125617,-0.6206788742610403,0.2688739142660286,0.4433231880812971,-0.3546600595435656,0.0,0.0,-0.6206788742610403,318.4571
159,90158,33.66,951.42,-0.36,0.12,0,0,-0.0311,-0.082,0.9913,0.18,0.12,0.0,122,107,36,,,1.7908000000000002,-4.728700000000001,318.3934,79.481,0.5,1.7908,-4.7287,951.34,-0.5320127275111308,-0.21999999999999997,0.056540912481922306,-0.5320127275111308,0.1389862370807322,-0.1773300297717828,-0.3546562867389702,0.0,0.0,-0.5320127275111308,318.3934
160,90658,33.67,951.45,-0.56,0.12,0,0,-0.0311,-0.0845,0.9904,-0.49,0.24,-0.43,120,107,38,,,1.7921000000000002,-4.8766,317.8809,79.981,0.5,1.7921,-4.8766,951.34,-0.7980089040328231,-0.42000000000000004,0.048438615107255556,-0.7980089040328231,0.1383593302036823,0.08866690134232691,0.3546600595435656,0.0,0.0,-0.7980089040328231,317.8809
161,91158,33.69,951.41,-0.22,0.12,0,0,-0.032,-0.0853,0.99,-0.85,0.18,-0.06,120,105,35,,,1.8445000000000003,-4.9245,318.4536,80.481,0.5,1.8445,-4.9245,951.34,-0.4433458261688039,-0.07999999999999999,0.04390206571558644,-0.4433458261688039,0.1659835852982446,0.1773300297717828,-0.7979809842314967,0.0,0.0,-0.4433458261688039,318.45360000000005
162,91658,33.71,951.43,-0.44,0.12,0,0,-0.0988,-0.1068,0.9929,14.71,-34.06,-16.85,118,107,36,,,5.6502,-6.1393,317.9863,80.981,0.5,5.6502,-6.1393,951.34,-0.6206788742610403,-0.3,-0.01684788553121891,-0.6206788742610403,-0.13139826594129977,-0.7093140828891698,3.018320453573864e-06,0.0,0.0,-0.6206788742610403,317.9863
163,92158,33.71,951.49,-0.99,0.12,0,0,-0.3881,-0.2317,0.8982,-4.58,9.89,17.88,116,109,34,,,22.7039,-14.4647,319.6128,81.481,0.5,22.7039,-14.4647,951.34,-1.1526599090579737,-0.85,-1.9996005738242073,-1.1526599090579737,-0.6950213525381902,0.17733304809223638,1.004857844635673,0.0,0.0,-1.1526599090579737,319.6128
164,92658,33.73,951.41,-0.23,0.12,0,0,-0.3903,-0.3885,0.7971,-6.65,-5.98,-8.36,109,108,36,,,23.7569,-25.9842,321.0761,81.981,0.5,23.7569,-25.9842,951.34,-0.4433458261688039,-0.09,-2.767734793775647,-0.4433458261688039,-1.2874112457018416,0.29554376174650326,-0.11822203206149091,0.0,0.0,-0.4433458261688039,321.07610000000005
166,93658,33.73,951.44,-0.5,0.12,0,0,-0.3431,-0.3416,0.8599,-0.49,7.51,0.92,111,106,39,,,20.3454,-21.6657,320.2707,82.981,1.0,20.3454,-21.6657,951.34,-0.7093442664382188,-0.36,-1.971837361082537,-0.7093442664382188,-1.6296243033921893,0.0,0.039414889651561626,0.0,0.0,-0.7093442664382188,320.2707
167,94158,33.74,951.41,-0.25,0.12,0,0,-0.1763,-0.3417,0.9067,-19.53,33.57,9.4,112,103,36,,,10.3121,-20.6495,318.8846,83.481,0.5,10.3121,-20.6495,951.34,-0.4433458261688039,-0.10999999999999999,-0.8120182107369058,-0.4433458261688039,-1.2388669070991463,0.3546660962238457,-0.44332696091542223,0.0,0.0,-0.4433458261688039,318.8846
168,94658,33.76,951.4,-0.16,0.12,0,0,-0.0107,0.0015,0.9877,-1.71,0.98,5.25,130,102,36,,,0.6207,0.087,321.9778,83.981,0.5,0.6207,0.087,951.34,-0.3546781702143731,-0.01999999999999999,0.03216563751021849,-0.3546781702143731,-0.9629650458678322,-0.44332696091542223,-0.2659976856376245,0.0,0.0,-0.3546781702143731,321.9778
169,95158,33.81,951.46,-0.69,0.12,0,0,-0.0057,-0.0437,0.9668,-49.62,36.74,301.39,113,105,37,,,0.3375,-2.588,316.7418,84.481,0.5,0.3375,-2.588,951.34,-0.8866727870842261,-0.5499999999999999,-0.17046992079972229,-0.8866727870842261,-0.6692438673163885,0.08866841058622121,1.3299997479996484,0.0,0.0,-0.8866727870842261,316.7418
170,95658,33.84,951.39,-0.07,0.12,0,0,0.0748,0.6157,1.3085,96.92,7.39,162.35,21,79,47,,,-2.961,25.1988,289.9688,84.981,0.5,-2.961,25.1988,951.34,-0.2660097596281519,0.07,3.941199572125239,-0.2660097596281519,1.1631282081922294,0.8866727870842261,-0.26600447712687325,0.0,0.0,-0.2660097596281519,289.96880000000004
171,96158,33.85,951.36,0.21,0.21,0,0,-0.049,0.2955,1.8607,59.33,-64.64,42.36,42,73,44,,,1.4898,9.0239,303.4165,85.481,0.5,1.4898,9.0239,951.34,0.0,0.35,8.697554865485275,0.0,3.615491738443027,-0.17733606654065204,0.7095284190967144,0.0,0.0,0.0,303.4165
172,96658,33.87,951.41,-0.21,0.21,0,0,-0.3312,0.304,1.6707,-183.9,40.83,-100.65,37,58,62,,,11.0363,10.3127,315.4478,85.981,0.5,11.0363,10.3127,951.34,-0.4433458261688039,-0.06999999999999998,6.2681317762552995,-0.4433458261688039,5.031772153107432,1.5962012061809405,2.660315728312069,0.0,0.0,-0.4433458261688039,315.4478
173,97158,33.88,951.18,1.82,1.82,0,0,0.6628,-0.1919,0.4838,-0.55,101.68,-99.06,78,78,36,,,-51.8589,-21.6358,280.88,86.481,0.5,-51.8589,-21.6358,951.34,1.5962012061809405,1.96,-7.946938321936761,1.5962012061809405,1.5331952153498398,2.482979661771417,0.08894320794399668,0.0,0.0,1.5962012061809405,280.88
174,97658,33.89,951.13,2.22,2.22,0,0,0.2579,-0.0377,0.7144,16.72,-50.11,-94.42,74,52,45,,,-19.8243,-3.0208,314.4117,86.981,0.5,-19.8243,-3.0208,951.34,2.039633835602613,2.3600000000000003,-3.1469036480592005,2.039633835602613,0.534877065588472,1.6851444141249372,-0.7090603731318419,-0.15908435589333014,-0.2222222222222222,2.039633835602613,314.4117
175,98158,33.91,950.99,3.47,3.47,0,0,0.326,0.2637,1.0428,144.04,156.68,-90.33,82,68,48,,,-16.861,14.1913,322.8935,87.481,0.5,-16.861,14.1913,951.34,3.2813456203058777,3.6100000000000003,0.2411482616310089,3.2813456203058777,1.0282738938158427,1.7739192886395752,-0.17715253024107103,-0.39434009798258257,-0.8593086419753085,3.2813456203058777,322.8935
176,98658,33.94,950.93,4.03,4.03,0,0,0.1937,0.0249,1.1298,-92.96,-9.03,-55.73,96,66,49,,,-9.7262,1.2626,323.2126,87.981,0.5,-9.7262,1.2626,951.34,3.8135531242421883,4.17,1.2864066445891371,3.8135531242421883,1.6169821053682296,1.5079918838838662,0.6213510097858022,-0.43103130569644504,-1.8443683399854587,3.8135531242421883,323.2126
177,99158,33.94,950.82,5.02,5.02,0,1,0.1333,0.1666,1.2872,-66.53,-15.38,-81.42,90,48,38,,,-5.8638,7.3747,334.1093,88.481,0.5,-5.8638,7.3747,951.34,4.789337504189744,5.159999999999999,3.0069924713480076,4.789337504189744,2.8787423268366146,2.3952702984253773,0.798770969293324,-0.27397167371631725,-3.08274458836972,4.789337504189744,334.1093
178,99658,33.95,950.66,6.38,6.38,0,1,0.458,0.0162,0.5652,-71.78,-47.42,-20.32,62,35,27,,,-39.0075,1.6418,313.149,88.981,0.5,-39.0075,1.6418,951.34,6.208823422667566,6.52,-5.900450161505475,6.208823422667566,0.7212657817816481,2.30676285317719,-1.0643265535938657,-0.014360771969498379,-4.513779270328341,6.208823422667566,313.149
179,100158,33.96,950.56,7.32,7.32,0,1,0.2032,0.0745,0.8065,23.8,97.41,-7.75,62,36,33,,,-14.0839,5.2777,328.8331,89.481,0.5,-14.0839,5.2777,951.34,7.096100357366934,7.46,-1.9706611231137812,7.096100357366934,0.2676047284270089,1.3309437448315116,-0.17698980323424607,0.23139648379259836,-6.147995596690291,7.096100357366934,328.8331
180,100658,33.98,950.51,7.73,7.73,0,1,0.4291,0.0658,1.0723,43.88,-84.72,-8.61,67,46,38,,,-21.7726,3.5115,318.733,89.981,0.5,-21.7726,3.5115,951.34,7.539767167499077,7.87,-0.06384577752897808,7.539767167499077,0.8670455764226613,2.129773049942944,0.5326632403324556,0.4352397572794917,-7.98292040405731,7.539767167499077,318.733
181,101158,33.99,950.32,9.41,9.41,0,1,0.6221,0.1819,1.0348,-51.51,82.64,-49.99,69,42,39,,,-30.6298,9.9698,323.2767,90.481,0.5,-30.6298,9.9698,951.34,9.225873407309878,9.55,-1.3701630312584618,9.225873407309878,0.742511702250276,1.8636069851639672,-0.9759641333532247,0.6271189971160828,-9.995427377383704,9.225873407309878,323.2767
182,101658,33.99,950.3,9.56,9.56,0,1,0.2328,0.1516,0.9418,-18.92,-23.68,-95.58,78,65,50,,,-13.7147,9.1444,320.0639,90.981,0.5,-13.7147,9.1444,951.34,9.403374152663044,9.700000000000001,-0.6221393831090141,9.403374152663044,0.6722309793270858,1.1538089165897194,0.5329491786452127,0.8770903040048468,-12.140544224845836,9.403374152663044,320.0639
183,102158,34.01,950.19,10.61,10.61,0,1,0.4152,0.0396,0.8486,-81.36,24.54,-125.31,90,68,50,,,-26.0468,2.6718,312.6302,91.481,0.5,-26.0468,2.6718,951.34,10.379682323899598,10.75,-2.428240286540284,10.379682323899598,0.4375926119743557,2.39655616380918,0.35521100596199773,1.205991973098841,-14.371265911724608,10.379682323899598,312.6302
184,102658,34.02,950.03,11.96,11.96,0,1,0.6439,0.1938,1.1411,-94.06,-74.89,-174.07,118,59,42,,,-29.0878,9.6389,332.8467,91.981,0.5,-29.0878,9.6389,951.34,11.799930316472224,12.100000000000001,-0.29374366912344235,11.799930316472224,0.6968204924589954,1.5090199225517171,-1.4200233181556339,1.519375625672438,-16.69538758930655,11.799930316472224,332.8467
185,103158,34.03,950.02,12.1,12.1,0,1,0.3538,0.0681,1.051,-57.01,16.72,-100.77,70,37,34,,,-18.5686,3.7073000000000005,328.9757,92.481,0.5,-18.5686,3.7073,951.34,11.888702246451315,12.24,0.027471042048344885,11.888702246451315,0.7992149575399605,0.976532845653546,1.598474393430351,1.803551202951323,-19.106948145480885,11.888702246451315,328.9757
186,103658,34.06,949.92,13.01,13.01,0,1,0.4749,0.1429,0.8859,-132.75,-0.37,-130.07,58,52,43,,,-27.8889,9.1632,307.2504,92.981,0.5,-27.8889,9.1632,951.34,12.77646316212577,13.15,-2.2521569516011066,12.77646316212577,0.8179224264869609,3.107494315982068,2.220033146014835,2.0825682079935466,-21.576117921766738,12.77646316212577,307.2504
187,104158,34.03,949.67,15.17,15.17,0,1,0.2228,-0.0356,0.9634,-49.99,53.89,-85.14,74,71,55,,,-13.013,-2.1163,309.0747,93.481,0.5,-13.013,-2.1163,951.34,14.996196562433383,15.31,-0.4605392085157744,14.996196562433383,1.4572905453755094,3.196565991668381,-0.7984696099448332,2.3177555747191105,-23.999547727452203,14.996196562433383,309.0747
188,104658,34.07,949.56,16.13,16.13,0,1,0.4174,0.1948,1.0117,-107.12,-48.77,-80.57,101,64,49,,,-22.0544,10.8988,327.9499,93.981,0.5,-22.0544,10.8988,951.34,15.973029153794151,16.27,-0.5455710403891549,15.973029153794151,1.5593449187996995,2.309024706037235,-1.4202719667171895,2.5134621258691205,-26.287504474895435,15.973029153794151,327.9499
189,105158,34.09,949.41,17.5,17.5,0,1,0.5293,-0.0164,0.9028,37.6,-32.29,-81.12,107,56,40,,,-30.378400000000003,-1.0407,321.3715,94.481,0.5,-30.3784,-1.0407,951.34,17.305221268470618,17.64,-2.4574359375294414,17.305221268470618,0.8125159750070496,1.7762940249511914,-0.6213366855623157,2.674486411708981,-28.55439241736245,17.305221268470618,321.3715
190,105658,34.02,949.36,17.94,17.94,0,1,0.4155,0.0587,0.8667,-76.66,-27.65,-8.79,99,44,42,,,-25.5622,3.8746,331.6237,94.981,0.5,-25.5622,3.8746,951.34,17.749323178745342,18.080000000000002,-2.2222770375762617,17.749323178745342,0.3634809776375856,1.6876880204749192,0.5333412464624026,2.6975065773645577,-30.892520909610433,17.749323178745342,331.6237
191,106158,34.03,949.22,19.22,19.22,0,1,0.3977,0.0714,0.9469,17.52,29.05,-9.28,89,44,39,,,-22.7246,4.3122,330.0716,95.481,0.5,-22.7246,4.3122,951.34,18.992909288945537,19.36,-1.2600805062798308,18.992909288945537,0.5921722401363114,2.309635271413594,1.1553522949264412,2.5933047202500954,-33.25511901784816,18.992909288945537,330.0716
192,106658,34.06,949.1,20.28,20.28,0,1,0.3568,0.1543,0.9546,10.5,-9.28,-37.23,92,43,30,,,-20.2531,9.1818,336.5875,95.981,0.5,-20.2531,9.1818,951.34,20.058958450158936,20.42,-0.9298998241492904,20.058958450158936,1.0324949905082308,2.8430403154013604,0.7114301416353968,2.5029812050215536,-35.57701916805721,20.058958450158936,336.5875
193,107158,34.1,948.9,22.07,22.07,0,1,0.4203,0.0936,0.9398,-33.14,0.92,-31.43,87,36,32,,,-23.990100000000005,5.6877,336.127,96.481,0.5,-23.9901,5.6877,951.34,21.835949604346897,22.21,-1.4291447928707157,21.835949604346897,1.2189702003982454,3.0210654130489907,-0.08810460675400122,2.4927881229388955,-37.83138356080849,21.835949604346897,336.127
194,107658,34.13,948.76,23.3,23.3,0,1,0.3645,0.1173,0.9635,20.51,3.6,-5.19,81,37,31,,,-20.5829,6.9412,335.3617,96.981,0.5,-20.5829,6.9412,951.34,23.080023863207927,23.44,-0.903337708185588,23.080023863207927,1.429846133752754,2.754935708647359,-0.08801642758388795,2.5404523935838657,-40.01531555938689,23.080023863207927,335.3617
195,108158,34.14,948.59,24.81,24.81,0,1,0.4049,0.1384,0.9055,-39.73,-18.01,-17.03,79,41,38,,,-23.8465,8.69,331.8417,97.481,0.5,-23.8465,8.69,951.34,24.590885312994256,24.95,-1.6854471791004997,24.590885312994256,1.3690980246233702,2.9330489854651027,0.7119867941588254,2.6437011234986167,-42.11267192581201,24.590885312994256,331.8417
196,108658,34.14,948.43,26.25,26.25,0,1,0.3881,0.1021,0.9359,-1.89,-0.98,0.98,77,42,42,,,-22.4032,6.2259,328.0916,97.981,0.5,-22.4032,6.2259,951.34,26.01307284867303,26.39,-1.3130734029767086,26.01307284867303,1.6306817163587388,3.4669225028061845,0.6232699584770707,2.8094617153818273,-44.12351653447434,26.01307284867303,328.0916
197,109158,34.15,948.2,28.25,28.25,0,1,0.4905,0.0842,0.9504,40.77,23.99,8.67,79,43,42,,,-27.207,5.0629,324.5521,98.481,0.5,-27.207,5.0629,951.34,28.05780781580044,28.39,-1.6765126729716473,28.05780781580044,1.7137232345626678,3.5563189439421734,-1.1549993300143022,2.9762377323347513,-46.080446595421606,28.05780781580044,324.5521
198,109658,34.17,948.03,29.79,29.79,0,1,0.4113,0.0789,0.9482,34.3,-42.24,61.1,80,36,34,,,-23.3776,4.7566,332.9137,98.981,0.5,-23.3776,4.7566,951.34,29.569391792615203,29.93,-1.3053230159491205,29.569391792615203,1.4780155419893657,2.3119231727918823,-0.8882823266078184,3.085927259580046,-48.00700185253302,29.569391792615203,332.9137
199,110158,34.15,947.94,30.58,30.58,0,1,0.4485,0.174,0.9015,19.04,11.41,50.11,87,40,31,,,-26.035,10.9244,337.4881,99.481,0.5,-26.035,10.9244,951.34,30.369730988592323,30.72,-1.9045890172420976,30.369730988592323,1.239826228023663,2.668036617334355,1.1569244797334655,3.182850781730213,-49.884330309532785,30.369730988592323,337.4881
200,110658,34.17,947.73,32.46,32.46,0,1,0.3853,0.1422,0.9246,5.43,-7.32,26.25,100,42,39,,,-22.3857,8.7434,338.7117,99.981,0.5,-22.3857,8.7434,951.34,32.23742840994956,32.6,-1.3849660465160323,32.23742840994956,1.521178020685547,3.4688476525253478,0.44553720714875666,3.358938663506674,-51.68673372896939,32.23742840994956,338.7117
201,111158,34.18,947.55,34.06,34.06,0,1,0.4077,0.0924,0.8994,3.05,-5.25,32.53,107,49,40,,,-24.272,5.8657,333.4506,100.481,0.5,-24.272,5.8657,951.34,33.83857864111767,34.2,-1.8058455040812418,33.83857864111767,1.450028120590988,3.1135738244831117,0.09014590718064852,3.603458242659621,-53.36842732876926,33.83857864111767,333.4506
202,111658,34.18,947.38,35.54,35.54,0,1,0.3737,0.1035,0.9706,37.9,17.4,36.38,106,55,42,,,-20.9493,6.0867,331.0191,100.981,0.5,-20.9493,6.0867,951.34,35.35100223443267,35.68,-0.8785722885222564,35.35100223443267,1.8601591707885718,3.5589935597059963,0.6239444335720137,3.850529095641042,-54.882417419291926,35.35100223443267,331.0191
203,112158,34.2,947.15,37.61,37.61,0,1,0.3116,0.1127,0.899,23.44,17.88,30.33,103,56,48,,,-18.9789,7.145400000000001,330.7779,101.481,0.5,-18.9789,7.1454,951.34,37.39757220082367,37.75,-1.3671141005496024,37.39757220082367,2.0302408330275554,3.7375182580551254,-0.6219075743894322,4.104437716746958,-56.17833821093217,37.39757220082367,330.7779
204,112658,34.2,946.96,39.3,39.3,0,1,0.348,0.106,0.9141,-34.48,-4.76,-55.36,103,55,43,,,-20.715,6.6145,330.5522,101.981,0.5,-20.715,6.6145,951.34,39.088520492487795,39.44,-1.364013020708253,39.088520492487795,1.877851543554474,2.937085985316564,-1.0670404995381801,4.392773897232191,-57.221056973603396,39.088520492487795,330.5522
205,113158,34.2,946.82,40.51,40.51,0,1,0.3207,0.0903,0.9343,-50.6,-5.68,-76.97,92,46,40,,,-18.8632,5.5205,332.0784,102.481,0.5,-18.8632,5.5205,951.34,40.33465818614023,40.65,-1.0508000578511676,40.33465818614023,1.7917935959249085,2.6704777585169452,0.3569962575582295,4.701475951051684,-58.028209120649876,40.33465818614023,332.0784
206,113658,34.21,946.66,41.99,41.99,0,1,0.3251,0.1178,0.887,-36.68,1.4,-51.27,75,34,32,,,-19.9674,7.565,336.118,102.981,0.5,-19.9674,7.565,951.34,41.75899825100474,42.13,-1.5432548916990574,41.75899825100474,1.7781381810085177,3.2940822428747936,-0.17741353987608477,5.0226076807115465,-58.617556929626815,41.75899825100474,336.118
207,114158,34.22,946.45,43.82,43.82,0,1,0.3702,0.1169,0.8812,-4.09,25.51,-15.5,69,39,34,,,-22.6098,7.5567,328.4821,103.481,0.5,-22.6098,7.5567,951.34,43.628740429015025,43.96,-1.8033150085570113,43.628740429015025,1.4153418573669616,2.4930642186408605,-1.4240041190721442,5.3691358020513595,-59.036916184558805,43.628740429015025,328.48210000000006
208,114658,34.24,946.38,44.41,44.41,0,1,0.3809,0.1277,0.9369,-3.54,-2.93,17.58,76,37,36,,,-21.941,7.7616,333.6005,103.981,0.5,-21.941,7.7616,951.34,44.2520624696456,44.55,-1.2480901397790345,44.2520624696456,1.1508905662525126,1.8700781238026494,0.08966770880235941,5.739712896354226,-59.36141403401376,44.2520624696456,333.6005
209,115158,34.25,946.24,45.69,45.69,0,1,0.3944,0.1238,0.915,4.27,-3.36,22.89,85,39,33,,,-23.1296,7.7054,335.2193,104.481,0.5,-23.1296,7.7054,951.34,45.498818552817674,45.83,-1.5477481887448707,45.498818552817674,1.1122549570677913,2.58273192744322,0.3566435685864846,6.126301372325445,-59.63372366326817,45.498818552817674,335.2193
210,115658,34.25,946.09,47.0,47.0,0,1,0.4055,0.1444,0.9468,26.31,-12.27,20.26,91,42,38,,,-22.9473,8.6716,335.8743,104.981,0.5,-22.9473,8.6716,951.34,46.83479439708882,47.14,-1.2390326768817483,46.83479439708882,1.070732976547656,2.226721692389134,-0.08845140491732195,6.529933659142964,-59.8769409578079,46.83479439708882,335.8743
211,116158,34.25,945.99,47.92,47.92,0,1,0.3809,0.1307,0.9177,26.37,-2.44,40.71,94,45,42,,,-22.3384,8.1056,334.3828,105.481,0.5,-22.3384,8.1056,951.34,47.72554024520681,48.06,-1.4498179038950738,47.72554024520681,1.0619761905753786,2.494280522525898,0.8023845928638522,6.956941967953058,-60.093326708989906,47.72554024520681,334.3828
212,116658,34.27,945.81,49.56,49.56,0,1,0.3695,0.1057,0.9205,12.51,10.74,57.19,99,48,42,,,-21.7417,6.5505,332.9256,105.981,0.5,-21.7417,6.5505,951.34,49.32907491961472,49.7,-1.3904345961699698,49.32907491961472,1.254208023411258,3.029106285252986,-0.08851513498205321,7.392306599979429,-60.24953441727516,49.32907491961472,332.9256
213,117158,34.28,945.65,50.96,50.96,0,1,0.3789,0.1162,0.9352,8.67,7.81,14.83,106,52,37,,,-21.9032,7.0828,333.3149,106.481,0.5,-21.9032,7.0828,951.34,50.754646530459794,51.1,-1.2673842351492826,50.754646530459794,1.2155990664056926,2.4057653875438447,-0.4447598754011892,7.809773751678302,-60.32081327705194,50.754646530459794,333.3149
214,117658,34.24,945.54,51.97,51.97,0,1,0.3755,0.1206,0.9237,-19.04,-1.04,-36.01,110,51,36,,,-21.9542,7.4386,335.1991,106.981,0.5,-21.9542,7.4386,951.34,51.734840307158564,52.11,-1.3707184457817663,51.734840307158564,1.2149420322938052,2.584346409851797,0.7136473897867077,8.208598700686954,-60.31414892451173,51.734840307158564,335.19910000000004
215,118158,34.27,945.36,53.51,53.51,0,1,0.3455,0.1145,0.9266,-29.11,-13.61,-44.37,104,46,38,,,-20.3072,7.0443,336.3971,107.481,0.5,-20.3072,7.0443,951.34,53.33899294031159,53.65,-1.2145077002244646,53.33899294031159,1.4449297138978991,3.1194127773305524,-0.35594631074290106,8.59958601276896,-60.22372325707357,53.33899294031159,336.3971
216,118658,34.25,945.19,55.05,55.05,0,1,0.3647,0.1189,0.9075,-17.21,-11.41,-36.32,93,44,36,,,-21.7257,7.4643,334.5263,107.981,0.5,-21.7257,7.4643,951.34,54.854253084489116,55.19,-1.4961792937058358,54.854253084489116,1.2073600777329527,2.228400099108896,-0.9798462674353772,8.985902389515502,-60.03612611016567,54.854253084489116,334.5263
217,119158,34.25,945.11,55.74,55.74,0,1,0.3429,0.1162,0.8871,-11.9,2.87,-18.55,85,42,38,,,-20.9701,7.462599999999999,333.2961,108.481,0.5,-20.9701,7.4626,951.34,55.56739303942049,55.88,-1.6190741918139009,55.56739303942049,0.9784041578490599,2.1395665098951753,-0.3561751400248241,9.367599395213484,-59.75861109215978,55.56739303942049,333.2961
218,119658,34.31,944.95,57.18,57.18,0,1,0.3823,0.1267,0.889,-5.62,0.49,9.7,83,41,40,,,-23.061,8.1112,333.0883,108.981,0.5,-23.061,8.1112,951.34,56.99381959438429,57.32,-1.7669295528084197,56.99381959438429,0.6873679073245906,1.8722249590840718,-1.4262798948813398,9.745579589263851,-59.41342584412865,56.99381959438429,333.0883
219,120158,34.31,944.9,57.64,57.64,0,1,0.2333,0.0842,0.6042,13.92,6.84,36.38,86,37,38,,,-20.9286,7.9335,337.6047,109.481,0.5,-20.9286,7.9335,951.34,57.43961799850456,57.78,-4.16573192255944,57.43961799850456,-0.6925698309654743,0.7132866150138355,-1.3372416605012702,10.11850573743942,-58.97512853597286,57.43961799850456,337.6047
220,120658,34.31,944.87,57.87,57.87,0,1,0.3154,0.1354,0.8021,17.09,-1.77,10.44,91,43,40,,,-21.1929,9.5816,336.4232,109.981,0.5,-21.1929,9.5816,951.34,57.70710620939813,58.01,-2.3792592738101046,57.70710620939813,-1.0764718790527508,0.5349832985828016,-0.17828956244105143,10.498096206262325,-58.386088812437094,57.70710620939813,336.4232
221,121158,34.32,944.84,58.19,58.19,0,1,0.3743,0.1068,0.9067,-3.42,7.87,14.53,97,43,38,,,-22.2927,6.7179,335.5283,110.481,0.5,-22.2927,6.7179,951.34,57.97460129708736,58.33,-1.5583392580265172,57.97460129708736,-1.0587619878530783,0.5349970525727841,-0.1783124837381891,10.886662335912773,-57.70053614076835,57.97460129708736,335.5283
222,121658,34.32,944.81,58.47,58.47,0,1,0.3698,0.1351,0.9221,-13.37,1.46,-3.3,97,42,38,,,-21.6434,8.3353,337.6871,110.981,0.5,-21.6434,8.3353,951.34,58.24210326197091,58.61,-1.3487106038464305,58.24210326197091,-1.0365212549026583,0.3566708148446125,-0.35665858846108733,11.263579633229574,-57.01140054693127,58.24210326197091,337.6871
223,122158,34.34,944.8,58.49,58.49,0,1,0.3923,0.1167,0.9124,-0.18,-6.23,-7.08,98,42,35,,,-23.0978,7.2888,336.8332,111.481,0.5,-23.0978,7.2888,951.34,58.33127211193197,58.63,-1.5721965698934093,58.33127211193197,-1.1556335385290097,0.17833846411169674,-0.8025074230347187,11.622146705270794,-56.34829302361737,58.33127211193197,336.8332
224,122658,34.35,944.79,58.63,58.63,0,1,0.365,0.1207,0.9579,-10.5,1.1,-13.92,92,42,39,,,-20.7092,7.1817,335.4278,111.981,0.5,-20.7092,7.1817,951.34,58.42044172608261,58.77,-0.9617754384041826,58.42044172608261,-1.2396263745507694,-0.4458366081901062,-0.6241788931069436,11.957790032945612,-55.70869067919682,58.42044172608261,335.4278
225,123158,34.35,944.85,58.08,58.63,0,1,0.3915,0.141,0.9025,-2.26,-10.01,-15.69,93,42,39,,,-23.1998,8.8797,336.6233,112.481,0.5,-23.1998,8.8797,951.34,57.88543550374187,58.22,-1.651135003709898,57.88543550374187,-1.5254093939355613,-0.4458404289952469,0.5350024015355999,12.276979371020678,-55.08393155693085,57.88543550374187,336.6233
226,123658,34.35,944.84,58.19,58.63,0,1,0.373,0.1409,0.9296,5.0,7.45,-9.28,91,42,38,,,-21.6391,8.6188,336.1479,112.981,0.5,-21.6391,8.6188,951.34,57.97460129708736,58.33,-1.2776197603605617,57.97460129708736,-1.413090918295397,0.08916579334549368,0.5350069864712594,12.601886131950522,-54.48125423789611,57.97460129708736,336.1479
227,124158,34.36,944.84,58.17,58.63,0,1,0.3491,0.1237,0.8755,1.4,0.49,12.15,92,42,33,,,-21.5452,8.0421,336.0894,113.481,0.5,-21.5452,8.0421,951.34,57.97460129708736,58.31,-1.762296700814771,57.97460129708736,-1.4997706599765175,0.08916655747601254,-0.2674966159158103,12.935985603579262,-53.88122888454302,57.97460129708736,336.0894
228,124658,34.36,944.83,58.28,58.63,0,1,0.3713,0.1083,0.906,-6.23,4.46,25.94,92,42,34,,,-22.1427,6.8166,334.9422,113.981,0.5,-22.1427,6.8166,951.34,58.06376785456337,58.42,-1.5509366637481208,58.06376785456337,-1.576269602090491,-0.17833082257031663,0.2675073140432218,13.255730483579265,-53.25580274316553,58.06376785456337,334.9422
229,125158,34.36,944.86,57.98,58.63,0,1,0.3706,0.1401,0.9072,20.45,7.02,19.47,96,42,34,,,-21.985100000000003,8.7789,337.7502,114.481,0.5,-21.9851,8.7789,951.34,57.796270474517044,58.12,-1.5055676620654197,57.796270474517044,-1.4338109982423892,0.35667387151923435,0.8025020741358802,13.548985214141563,-52.61527801595429,57.796270474517044,337.75020000000006
230,125658,34.38,944.79,58.61,58.63,0,1,0.3641,0.1335,0.9407,11.11,3.05,3.42,100,42,42,,,-20.967500000000005,8.0772,338.3847,114.981,0.5,-20.9675,8.0772,951.34,58.42044172608261,58.75,-1.1282068370773406,58.42044172608261,-1.1238858606655187,0.6241712515655635,1.222729403593803e-05,13.836632953412767,-51.9704363056527,58.42044172608261,338.3847
231,126158,34.36,944.79,58.63,58.63,0,1,0.3682,0.1139,0.9209,-6.96,5.0,-12.02,102,45,38,,,-21.6433,7.0507,336.1572,115.481,0.5,-21.6433,7.0507,951.34,58.42044172608261,58.77,-1.373649092461062,58.42044172608261,-1.088244904992943,0.3566860988132703,-0.7133408657161979,14.117949535896553,-51.31362672620975,58.42044172608261,336.1572
232,126658,34.38,944.75,58.93,58.93,0,1,0.3566,0.0933,0.9114,-15.69,-10.19,-35.22,91,43,42,,,-21.2676,5.845,333.0115,115.981,0.5,-21.2676,5.845,951.34,58.77712782489588,59.07,-1.4395291117805118,58.77712782489588,-1.2350628453056776,-0.0891696141506344,-0.624201819266645,14.357736365683227,-50.633106892098,58.77712782489588,333.0115
233,127158,34.36,944.8,58.53,58.93,0,1,0.3513,0.1198,0.8971,-17.7,-10.86,-56.82,77,42,40,,,-21.2137,7.606400000000001,330.0604,116.481,0.5,-21.2137,7.6064,951.34,58.33127211193197,58.67,-1.5465491323313127,58.33127211193197,-1.4280635144653475,-0.2675157204533747,0.4458526560530345,14.544454015583089,-49.91882903458685,58.33127211193197,330.0604
234,127658,34.38,944.78,58.75,58.93,0,1,0.332,0.1108,0.908,-25.21,10.86,-61.71,68,44,45,,,-19.9482,6.957200000000001,323.6496,116.981,0.5,-19.9482,6.9572,951.34,58.5096121044425,58.89,-1.3570229677966332,58.5096121044425,-1.2854889849416427,0.3566830419024001,0.713379075839633,14.701299145178233,-49.161112355830596,58.5096121044425,323.6496
235,128158,34.39,944.76,58.85,58.93,0,1,0.297,0.1147,0.9297,-7.69,7.75,-23.86,60,49,46,,,-17.5914,7.0332,316.5282,117.481,0.5,-17.5914,7.0332,951.34,58.68795515383437,58.99,-0.9901241933585663,58.68795515383437,-1.0384129359518643,0.4458633553862583,-1.0700368986494126,14.848417312725033,-48.329727745575894,58.68795515383437,316.5282
236,128658,34.38,944.73,59.12,59.12,0,1,0.3514,0.1306,0.8892,0.12,-4.21,-2.08,59,51,45,,,-21.3551,8.3555,313.0739,117.981,0.5,-21.3551,8.3555,951.34,58.95547545982876,59.26,-1.6205740585189772,58.95547545982876,-1.4702512623899062,-0.7133538567470126,-0.9808970891324122,14.998263308348694,-47.423547048474916,58.95547545982876,313.0739
237,129158,34.38,944.84,58.16,59.12,0,1,0.3806,0.1278,0.9424,-1.77,-3.3,0.85,58,47,47,,,-21.8113,7.722799999999999,313.8967,118.481,0.5,-21.8113,7.7228,951.34,57.97460129708736,58.3,-1.188142322052649,57.97460129708736,-1.5545595268595385,-0.5350337337461539,0.8025204142230251,15.15111203598801,-46.51383034937305,57.97460129708736,313.8967
238,129658,34.34,944.79,58.6,59.12,0,1,0.3278,0.1017,0.9174,-7.51,0.98,1.77,58,47,43,,,-19.5519,6.3258,315.1103,118.981,0.5,-19.5519,6.3258,951.34,58.42044172608261,58.74,-1.2481867372686977,58.42044172608261,-1.4227130778372543,0.08916655747601254,0.3566952696344572,15.287714639409089,-45.62879887785357,58.42044172608261,315.1103
239,130158,34.35,944.83,58.3,59.12,0,1,0.3584,0.1217,0.9457,-11.6,1.77,-2.99,61,49,48,,,-20.6002,7.333,315.0613,119.481,0.5,-20.6002,7.333,951.34,58.06376785456337,58.44,-1.061562890761583,58.06376785456337,-1.361775836849263,-0.17833846411169674,0.5350207417949875,15.39664607154398,-44.7373010195692,58.06376785456337,315.0613000000001
240,130658,34.34,944.81,58.44,59.12,0,1,0.3074,0.1248,0.9288,6.47,-11.05,-3.23,62,51,44,,,-18.1604,7.652800000000001,316.8262,119.981,0.5,-18.1604,7.6528,951.34,58.24210326197091,58.58,-1.0299097392199428,58.24210326197091,-1.043091371215823,0.624187299271,3.056704159121182e-06,15.495081261011023,-43.82358982253953,58.24210326197091,316.8262
241,131158,34.35,944.76,58.86,59.12,0,1,0.3328,0.1063,0.9315,1.04,1.46,2.81,65,50,45,,,-19.5433,6.510300000000001,317.4543,120.481,0.5,-19.5433,6.5103,951.34,58.68795515383437,59.0,-1.116994846129592,58.68795515383437,-1.1271709986562586,-0.17833540740753762,-1.4267069493635063,15.593699093821819,-42.873116482528076,58.68795515383437,317.4543
242,131658,34.38,944.83,58.22,59.12,0,1,0.3456,0.1094,0.9426,2.87,0.24,7.63,62,48,39,,,-20.0117,6.6202,317.5998,120.981,0.5,-20.0117,6.6202,951.34,58.06376785456337,58.36,-1.0505358555617919,58.06376785456337,-1.3691325009889386,-0.8025196500925063,0.35667081481507523,15.672865015597207,-41.89790571834857,58.06376785456337,317.5998
243,132158,34.38,944.85,58.05,59.12,0,1,0.3662,0.1191,0.9355,8.97,2.5,-7.63,61,47,44,,,-21.221900000000005,7.2554,316.6417,121.481,0.5,-21.2219,7.2554,951.34,57.88543550374187,58.19,-1.2053962751401361,57.88543550374187,-1.2551086232368254,0.17833540740753762,1.2483562582826124,15.721722024963302,-40.94006858063443,57.88543550374187,316.6417
244,132658,34.38,944.81,58.42,59.12,0,1,0.3408,0.1138,0.99,-11.29,6.65,-28.38,59,50,47,,,-18.8802,6.5573,313.76,121.981,0.5,-18.8802,6.5573,951.34,58.24210326197091,58.56,-0.5305199061326442,58.24210326197091,-0.8649668481387296,0.4458366081901062,0.08917343506405473,15.747699617863557,-40.01382148670575,58.24210326197091,313.76
245,133158,34.36,944.8,58.51,59.12,0,1,0.349,0.1158,0.9196,-16.48,-6.04,-8.73,58,52,46,,,-20.6333,7.177200000000001,311.0868,122.481,0.5,-20.6333,7.1772,951.34,58.33127211193197,58.65,-1.3021072292532194,58.33127211193197,-0.9215106943530288,0.26750884247159235,-0.5350054581511685,15.756333191550855,-39.10459681707101,58.33127211193197,311.0868
246,133658,34.38,944.78,58.66,59.12,0,1,0.3939,0.1488,0.9448,3.48,-19.04,-3.6,60,57,47,,,-22.3837,8.9502,309.2543,122.981,0.5,-22.3837,8.9502,951.34,58.5096121044425,58.8,-1.202221064606953,58.5096121044425,-1.0448037677580244,-0.08916884996106234,-0.1783376998925874,15.760256578792568,-38.23794143773364,58.5096121044425,309.2543
247,134158,34.38,944.81,58.46,59.12,0,1,0.4364,0.1135,0.8602,-1.04,33.45,-3.11,62,47,43,,,-26.7008,7.5165,313.5605,123.481,0.5,-26.7008,7.5165,951.34,58.24210326197091,58.6,-2.360649172915549,58.24210326197091,-1.4536951886175309,0.08917114257900494,0.4458488350116596,15.755733691455738,-37.48829343680967,58.24210326197091,313.5605
248,134658,34.38,944.77,58.76,59.12,0,1,0.3234,0.1476,0.9807,11.9,38.88,11.35,64,44,45,,,-18.0607,8.559,323.9057,123.981,0.5,-18.0607,8.559,951.34,58.59878324702151,58.9,-0.5307669786879547,58.59878324702151,-1.02715912362414,0.3566799850505973,-0.4458511276296022,15.738523001584639,-36.84554272586894,58.59878324702151,323.9057
249,135158,34.39,944.77,58.8,59.12,0,1,0.4149,0.1498,0.8951,10.44,-58.11,37.84,69,39,39,,,-24.5683,9.5007,329.0793,124.481,0.5,-24.5683,9.5007,951.34,58.59878324702151,58.94,-1.8339409450651196,58.59878324702151,-1.414979725787999,-0.3566799850505973,-0.6241911201401322,15.741401317893011,-36.24721809309034,58.59878324702151,329.07930000000005
250,135658,34.38,944.81,58.45,59.12,0,1,0.4451,0.1378,0.8032,30.03,6.53,64.76,75,40,41,,,-28.6424,9.7351,329.4403,124.981,0.5,-28.6424,9.7351,951.34,58.24210326197091,58.59,-3.009659385562816,58.24210326197091,-2.035709990742783,-0.26751113508953495,0.26751189926434193,15.760216936578875,-35.74637468277115,58.24210326197091,329.4403
251,136158,34.38,944.8,58.53,59.12,0,1,0.3112,0.1335,1.0486,79.41,51.94,125.85,89,45,40,,,-16.404400000000003,7.2554,333.696,125.481,0.5,-16.4044,7.2554,951.34,58.33127211193197,58.67,0.20215281725444978,58.33127211193197,-1.3194784166724574,-0.08916808578625535,0.08917419934221726,15.775477066725596,-35.331703055125274,58.33127211193197,333.696
252,136658,34.38,944.82,58.35,59.12,0,1,0.3052,0.1312,0.9641,37.11,8.79,123.84,112,57,40,,,-17.4153,7.749500000000001,333.7421,125.981,0.5,-17.4153,7.7495,951.34,58.152935176184656,58.49,-0.6501186258346485,58.152935176184656,-1.1558041316422938,-0.17833693574731768,0.8025341698272968,15.810229696756544,-34.84719566763175,58.152935176184656,333.7421
253,137158,34.39,944.82,58.39,59.12,0,1,0.4622,0.1287,0.8,37.66,-29.48,50.35,113,64,47,,,-29.701100000000004,9.1392,327.4375,126.481,0.5,-29.7011,9.1392,951.34,58.152935176184656,58.53,-3.1507409850783588,58.152935176184656,-1.5829943881073016,0.7133660840410414,0.26750502153357303,15.853255960625866,-34.31389516592759,58.152935176184656,327.4375
254,137658,34.38,944.74,59.06,59.12,0,1,0.4338,0.1274,0.9156,19.84,28.99,23.56,98,79,50,,,-25.1391,7.9215,315.5166,126.981,0.5,-25.1391,7.9215,951.34,58.8663012602257,59.2,-1.729300170703582,58.8663012602257,-1.6020402870439767,0.08916808578625535,-0.9808840972452302,15.856720416881124,-33.89295359481139,58.8663012602257,315.5166
255,138158,34.38,944.81,58.42,59.12,0,1,0.4047,0.1427,0.9579,45.65,-2.08,52.61,82,78,50,,,-22.6788,8.4731,310.6383,127.481,0.5,-22.6788,8.4731,951.34,58.24210326197091,58.56,-1.118370399021636,58.24210326197091,-1.5299896621045928,-0.2675180132041888,7.641748069886489e-07,15.81946517711473,-33.59385010720575,58.24210326197091,310.6383
256,138658,34.39,944.77,58.79,59.12,0,1,0.4001,0.131,0.9238,20.39,13.12,42.66,66,73,47,,,-23.2103,8.071,303.9609,127.981,0.5,-23.2103,8.071,951.34,58.59878324702151,58.93,-1.4733847090156764,58.59878324702151,-1.4813983944212665,0.08916884996106234,6.878114653829925e-06,15.76843885180243,-33.34142212157013,58.59878324702151,303.9609
257,139158,34.39,944.8,58.52,59.12,0,1,0.3665,0.0948,0.8719,5.19,3.78,63.29,56,56,45,,,-22.6792,6.2053,305.0897,128.481,0.5,-22.6792,6.2053,951.34,58.33127211193197,58.660000000000004,-1.9042691620258974,58.33127211193197,-1.7115256953193219,-0.26751113508953495,-0.08916884996106234,15.691733620923074,-33.08762756467803,58.33127211193197,305.0897
258,139658,34.39,944.8,58.53,59.12,0,1,0.4144,0.1504,0.8994,32.47,-4.27,65.19,63,55,46,,,-24.439,9.4933,311.6823,128.981,0.5,-24.439,9.4933,951.34,58.33127211193197,58.67,-1.7844032063473434,58.33127211193197,-1.7358181989953292,0.0,6.877720934994613e-06,15.580358168694616,-32.82067114382397,58.33127211193197,311.6823
259,140158,34.38,944.8,58.56,59.12,0,1,0.3694,0.119,0.9213,29.36,-13.12,44.49,62,47,45,,,-21.6853,7.359899999999999,316.923,129.481,0.5,-21.6853,7.3599,951.34,58.33127211193197,58.7,-1.3703431794413157,58.33127211193197,-1.7031612782668581,-0.26750425736859995,0.17833999251053,15.458743478277185,-32.55397554332683,58.33127211193197,316.923
260,140658,34.38,944.83,58.3,59.12,0,1,0.4066,0.1033,0.938,24.84,23.56,74.16,69,43,47,,,-23.3098,6.2845,321.9606,129.981,0.5,-23.3098,6.2845,951.34,58.06376785456337,58.44,-1.3757185819570852,58.06376785456337,-1.5345670486600906,0.17833999251053,1.2483868265348974,15.316407141790833,-32.27531165449051,58.06376785456337,321.9606
261,141158,34.38,944.78,58.75,59.12,0,1,0.3705,0.1405,0.9233,37.6,-10.38,76.97,90,41,31,,,-21.6388,8.6524,336.633,130.481,0.5,-21.6388,8.6524,951.34,58.5096121044425,58.89,-1.333739659971974,58.5096121044425,-1.1406637293752862,0.9808825691662975,-0.62418424238966,15.143107694617939,-31.976075930926413,58.5096121044425,336.633
262,141658,34.38,944.72,59.2,59.2,0,1,0.4047,0.1104,0.8905,4.09,6.41,41.32,106,47,35,,,-24.2759,7.0672,335.5705,130.981,0.5,-24.2759,7.0672,951.34,59.04465042372967,59.34,-1.8729566952457897,59.04465042372967,-1.533376134625164,-0.44584424987912996,-1.694260880963995,14.95785962982739,-31.6643014411315,59.04465042372967,335.5705
263,142158,34.32,944.83,58.29,59.2,0,1,0.3783,0.1143,0.8729,6.29,-8.61,22.16,111,53,35,,,-23.2539,7.46,334.1652,131.481,0.5,-23.2539,7.46,951.34,58.06376785456337,58.43,-1.9323855549445388,58.06376785456337,-1.9041720453308546,-0.7133783117976975,1.2483776555414536,14.751167024220607,-31.346277852397236,58.06376785456337,334.1652
264,142658,34.34,944.8,58.54,59.2,0,1,0.399,0.1346,0.9052,10.19,3.48,-6.65,114,56,38,,,-23.5569,8.4577,333.9969,131.981,0.5,-23.5569,8.4577,951.34,58.33127211193197,58.68,-1.66428312228464,58.33127211193197,-1.556697935761342,0.8025334056623237,1.0700613537000976,14.524436541524068,-31.024448987523215,58.33127211193197,333.9969
265,143158,34.34,944.74,59.11,59.2,0,1,0.3566,0.1362,0.9209,-7.26,9.4,-20.39,114,56,47,,,-20.96,8.413,334.3691,132.481,0.5,-20.96,8.413,951.34,58.8663012602257,59.25,-1.3024170010398701,58.8663012602257,-1.3530432768867182,0.3566830419024001,-1.7833991621461536,14.308812766881431,-30.687778444262904,58.8663012602257,334.3691
266,143658,34.38,944.76,58.85,59.2,0,1,0.3961,0.1229,0.928,-1.4,-10.44,-6.47,111,50,36,,,-22.935,7.5441,335.8549,132.981,0.5,-22.935,7.5441,951.34,58.68795515383437,58.99,-1.4171838004417687,58.68795515383437,-1.7013787035663452,-0.9808657564838299,-0.6241964696541658,14.112139312338641,-30.323487007882363,58.68795515383437,335.8549
267,144158,34.39,944.85,58.11,59.2,0,1,0.3939,0.1134,0.9073,-5.0,14.47,-26.61,105,48,33,,,-23.3061,7.1242,335.0907,133.481,0.5,-23.3061,7.1242,951.34,57.88543550374187,58.25,-1.6373786984843575,57.88543550374187,-1.7692165111229379,-0.2675134277517657,1.5158719788245705,13.90887911562237,-29.94759230536414,57.88543550374187,335.0907
268,144658,34.38,944.79,58.66,59.2,0,1,0.3712,0.1213,0.9039,-12.88,-11.47,-32.65,99,44,41,,,-22.1471,7.643200000000001,336.2196,133.981,0.5,-22.1471,7.6432,951.34,58.42044172608261,58.8,-1.561584435632173,58.42044172608261,-1.5216704118457693,0.5350062223407406,0.08917496364006894,13.685269328080437,-29.56640361881938,58.42044172608261,336.2196
269,145158,34.38,944.79,58.66,59.2,0,1,0.3776,0.1205,0.9,-18.86,-7.08,-32.59,91,39,37,,,-22.5797,7.625899999999999,337.1053,134.481,0.5,-22.5797,7.6259,951.34,58.42044172608261,58.8,-1.6331959553193234,58.42044172608261,-1.6182917477075196,-0.17833846411169674,-0.44583584398084497,13.453062714075486,-29.1625928095894,58.42044172608261,337.1053
270,145658,34.39,944.81,58.47,59.2,0,1,0.4005,0.149,0.973,-27.77,1.28,-44.31,83,40,39,,,-22.14,8.7063,334.7432,134.981,0.5,-22.14,8.7063,951.34,58.24210326197091,58.61,-0.9317838232656537,58.24210326197091,-1.3597323134402657,0.08917037835989561,0.535018449162294,13.230169689711182,-28.74799346965682,58.24210326197091,334.7432
271,146158,34.39,944.78,58.68,59.2,0,1,0.3823,0.1268,0.9027,-17.88,-9.89,-39.12,76,40,38,,,-22.7527,7.9959,331.0434,135.481,0.5,-22.7527,7.9959,951.34,58.5096121044425,58.82,-1.6201814184030616,58.5096121044425,-1.3276553534109987,0.3566799850505973,0.17834534209347908,13.028750100673115,-28.342140833222174,58.5096121044425,331.0434
272,146658,34.39,944.77,58.78,59.2,0,1,0.3604,0.1256,0.8978,-8.85,3.48,-23.8,70,41,43,,,-21.6805,7.963899999999999,327.363,135.981,0.5,-21.6805,7.9639,951.34,58.59878324702151,58.92,-1.5739663633625631,58.59878324702151,-1.320587116577062,0.2675157204533747,-0.4458511276296022,12.84251023228056,-27.9275090283258,58.59878324702151,327.363
273,147158,34.38,944.75,58.96,59.2,0,1,0.395,0.1345,0.9165,-4.82,-13.0,-16.42,65,45,43,,,-23.0944,8.3488,320.7441,136.481,0.5,-23.0944,8.3488,951.34,58.77712782489588,59.1,-1.5242317028434846,58.77712782489588,-1.4181923595255377,-0.08917114257900494,-0.5350314409067494,12.665434119944194,-27.49344417631795,58.77712782489588,320.7441
274,147658,34.39,944.78,58.7,59.2,0,1,0.3989,0.1204,0.8981,4.39,-5.86,2.56,65,46,38,,,-23.7601,7.6356,319.6821,136.981,0.5,-23.7601,7.6356,951.34,58.5096121044425,58.84,-1.753891464148461,58.5096121044425,-1.619263967884304,-0.2675157204533747,0.17834228515800987,12.49030262100456,-27.068623730843,58.5096121044425,319.68210000000005
275,148158,34.39,944.78,58.72,59.2,0,1,0.3846,0.1223,0.9288,13.31,0.31,18.19,63,47,40,,,-22.3201,7.5013,318.113,137.481,0.5,-22.3201,7.5013,951.34,58.5096121044425,58.86,-1.3560890383593334,58.5096121044425,-1.501815277182979,0.08917114257900494,-0.08916120780447301,12.303646322423354,-26.662492097047505,58.5096121044425,318.113
276,148658,34.38,944.77,58.83,59.2,0,1,0.4071,0.1451,0.9231,6.9,-7.63,21.06,63,45,42,,,-23.5411,8.9331,319.8525,137.981,0.5,-23.5411,8.9331,951.34,58.59878324702151,58.97,-1.4998320116192492,58.59878324702151,-1.6200464980810183,-0.3566769282578477,-0.5350192134158576,12.114006226956505,-26.270533299785768,58.59878324702151,319.8525
295,158158,34.38,944.82,58.34,59.41,0,1,0.3761,0.129,0.9075,-1.77,-0.31,-0.92,82,41,43,,,-22.3089,8.0903,332.7897,147.481,0.5,-22.3089,8.0903,951.34,58.152935176184656,58.480000000000004,-1.5383057878823017,58.152935176184656,-1.7414156182937304,-0.44584807083685263,0.5350138640051654,11.938622809471312,-25.894247381534626,58.152935176184656,332.7897
300,160658,34.38,944.82,58.37,59.41,0,1,0.3842,0.1266,0.9358,21.61,-5.49,29.24,110,50,40,,,-22.139,7.7045,335.7959,149.981,0.5,-22.139,7.7045,951.34,58.152935176184656,58.51,-1.2757197032016805,58.152935176184656,-1.5267380013472747,0.17833693574731768,0.535016156623108,11.774247351458293,-25.514230433085004,58.152935176184656,335.7959
301,161158,34.35,944.8,58.56,59.41,0,1,0.3912,0.1028,0.9019,-4.82,-2.69,-8.85,110,53,39,,,-23.3141,6.5026,332.965,150.481,0.5,-23.3141,6.5026,951.34,58.33127211193197,58.7,-1.6915209995642408,58.33127211193197,-1.5519429721575118,0.08916808578625535,-0.08916732159668328,11.597103269256102,-25.120984183887003,58.33127211193197,332.965
302,161658,34.36,944.81,58.47,59.41,0,1,0.3499,0.1129,0.9246,-25.76,-4.88,-38.27,106,50,38,,,-20.5884,6.961700000000001,334.5842,150.981,0.5,-20.5884,6.9617,951.34,58.24210326197091,58.61,-1.2555763745661708,58.24210326197091,-1.4234309015768534,0.0891696141506344,0.08917037832544139,11.390637675676459,-24.70323575159739,58.24210326197091,334.5842
303,162158,34.35,944.79,58.6,59.41,0,1,0.3622,0.1255,0.9248,-43.15,-16.85,-58.65,102,47,38,,,-21.211,7.728100000000001,335.63,151.481,0.5,-21.211,7.7281,951.34,58.42044172608261,58.74,-1.295609742862403,58.42044172608261,-1.3213776939681376,0.17833846411169674,-0.0891696141506344,11.17286450816296,-24.2355597668153,58.42044172608261,335.63
304,162658,34.36,944.79,58.6,59.41,0,1,0.3586,0.1104,0.8846,-28.87,-5.13,-61.83,87,42,39,,,-21.913,7.1139,333.3691,151.981,0.5,-21.913,7.1139,951.34,58.42044172608261,58.74,-1.719929711995657,58.42044172608261,-1.4542283666439775,0.0,-0.08916808575180113,10.959258795002441,-23.72189676417156,58.42044172608261,333.3691
305,163158,34.36,944.79,58.61,59.41,0,1,0.3497,0.1266,0.8927,-11.78,0.43,-35.64,76,39,38,,,-21.1989,8.0717,332.4626,152.481,0.5,-21.1989,8.0717,951.34,58.42044172608261,58.75,-1.5798908515979484,58.42044172608261,-1.466392402175336,0.08917037835989561,-0.7133355166844808,10.74952030388745,-23.17406367484216,58.42044172608261,332.4626
306,163658,34.38,944.78,58.75,59.41,0,1,0.4161,0.1531,0.9369,-6.84,-4.7,-11.9,63,43,43,,,-23.6684,9.2807,321.6386,152.981,0.5,-23.6684,9.2807,951.34,58.5096121044425,58.89,-1.3860568127907715,58.5096121044425,-1.6773923779419748,-0.7133355166844808,-0.35667922083148795,10.560139900613066,-22.627438112470827,58.5096121044425,321.6386
307,164158,34.38,944.87,57.9,59.41,0,1,0.3667,0.1171,0.928,10.38,7.14,15.26,66,46,44,,,-21.4073,7.1918999999999995,320.4401,153.481,0.5,-21.4073,7.1919,951.34,57.70710620939813,58.04,-1.2888623626652111,57.70710620939813,-1.637051987006918,-0.26750884247159235,1.4266710333689616,10.395538922868681,-22.12053733460084,57.70710620939813,320.4401
308,164658,34.38,944.81,58.41,59.41,0,1,0.3744,0.1292,0.8807,13.43,-4.76,29.91,68,45,42,,,-22.8123,8.3458,322.9098,153.981,0.5,-22.8123,8.3458,951.34,58.24210326197091,58.55,-1.8164602800023986,58.24210326197091,-1.4590762457772513,0.7133355166844808,0.6241888275221896,10.238792510183906,-21.63242676165737,58.24210326197091,322.9098
309,165158,34.38,944.79,58.62,59.41,0,1,0.3937,0.1428,0.9293,12.21,7.69,29.91,75,39,38,,,-22.7209,8.736,332.1275,154.481,0.5,-22.7209,8.736,951.34,58.42044172608261,58.76,-1.3728714521883496,58.42044172608261,-1.3114479862307515,0.3566799850505973,-0.7133355166844808,10.092199674934626,-21.157365428776757,58.42044172608261,332.1275
310,165658,34.36,944.77,58.8,59.41,0,1,0.358,0.1062,0.9362,8.18,2.81,33.26,87,42,42,,,-20.8048,6.4718,333.0091,154.981,0.5,-20.8048,6.4718,951.34,58.59878324702151,58.94,-1.1730230953138627,58.59878324702151,-1.265306355925122,0.0,-0.7133599701011946,9.954494145600236,-20.69727063560447,58.59878324702151,333.0091
311,166158,34.36,944.79,58.58,59.41,0,1,0.3866,0.1031,0.9333,-2.99,-1.46,25.02,94,42,40,,,-22.3782,6.3038,334.7872,155.481,0.5,-22.3782,6.3038,951.34,58.42044172608261,58.72,-1.3332349175939533,58.42044172608261,-1.4068425381649317,-0.3566799850505973,0.17834152093890054,9.794916245167663,-20.22780740761948,58.42044172608261,334.7872
312,166658,34.29,944.81,58.47,59.41,0,1,0.349,0.1302,0.8676,3.42,7.87,-10.19,99,45,35,,,-21.6929,8.5346,336.5781,155.981,0.5,-21.6929,8.5346,951.34,58.24210326197091,58.61,-1.8393880270195244,58.24210326197091,-1.4915771941368292,0.17834152093890054,0.8025318769140597,9.610414976814148,-19.745806035005785,58.24210326197091,336.5781
313,167158,34.31,944.77,58.77,59.41,0,1,0.374,0.1251,0.9458,-13.0,-10.44,-30.21,94,43,36,,,-21.4061,7.534700000000001,335.6023,156.481,0.5,-21.4061,7.5347,951.34,58.59878324702151,58.910000000000004,-1.125151760460989,58.59878324702151,-1.2208180856237285,0.4458518918634624,0.17835069186835284,9.431923583943309,-19.25413082253158,58.59878324702151,335.6023
314,167658,34.31,944.76,58.85,59.41,0,1,0.385,0.1199,0.9053,-3.85,-5.0,-24.29,87,41,36,,,-22.8599,7.544500000000001,334.2992,156.981,0.5,-22.8599,7.5445,951.34,58.68795515383437,58.99,-1.6113125612966983,58.68795515383437,-1.2320855065789675,0.3566922128072534,-0.7133653196152281,9.261772178187549,-18.7671356499867,58.68795515383437,334.2992
315,168158,34.34,944.73,59.13,59.41,0,1,0.3657,0.1241,0.9216,-3.11,0.31,-23.25,79,42,42,,,-21.4678,7.6692,330.7611,157.481,0.5,-21.4678,7.6692,951.34,58.95547545982876,59.27,-1.3461910959892847,58.95547545982876,-1.3592918456329952,-0.2675134277517657,-0.535039847740137,9.089164412276233,-18.297497222265974,58.95547545982876,330.7611
316,168658,34.35,944.79,58.59,59.41,0,1,0.3451,0.1129,0.8784,-19.65,-6.41,-15.81,74,43,43,,,-21.2893,7.324,327.3958,157.981,0.5,-21.2893,7.324,951.34,58.42044172608261,58.730000000000004,-1.7237016899411055,58.42044172608261,-1.5402110053799933,-0.17834763493288364,0.4458549486906662,8.917554337295684,-17.8220289019049,58.42044172608261,327.3958
317,169158,34.35,944.75,58.99,59.41,0,1,0.3746,0.1322,0.9344,1.34,5.74,-7.81,73,42,47,,,-21.6504,8.0528,327.8929,158.481,0.5,-21.6504,8.0528,951.34,58.77712782489588,59.13,-1.2422741480915622,58.77712782489588,-1.381451545970883,0.17834152093890054,3.057058513888933e-06,8.752266522841055,-17.329632619521476,58.77712782489588,327.89290000000005
318,169658,34.35,944.77,58.79,59.41,0,1,0.3856,0.1329,0.9498,-10.31,8.79,7.26,74,42,42,,,-21.9033,7.9654,328.5812,158.981,0.5,-21.9033,7.9654,951.34,58.59878324702151,58.93,-1.1271346436095475,58.59878324702151,-1.3561274378085613,-0.17834457787436975,3.0569354692033812e-06,8.600431174926477,-16.84949009657805,58.59878324702151,328.5812
319,170158,34.34,944.77,58.82,59.41,0,1,0.3615,0.1177,0.8987,8.67,3.54,23.32,76,40,43,,,-21.7442,7.4614,330.5858,159.481,0.5,-21.7442,7.4614,951.34,58.59878324702151,58.96,-1.5765232199673016,58.59878324702151,-1.3701445059033517,0.17834457787436975,0.08917343529536481,8.459507940100899,-16.394083152270355,58.59878324702151,330.5858
320,170658,34.32,944.75,58.99,59.41,0,1,0.3594,0.1312,0.9006,21.91,8.42,27.65,84,40,42,,,-21.549,8.2886,334.8018,159.981,0.5,-21.549,8.2886,951.34,58.77712782489588,59.13,-1.5344598659670454,58.77712782489588,-1.4546400067842513,-0.08917114257900494,-0.17834457787436975,8.325533178027428,-15.944050759636411,58.77712782489588,334.8018
321,171158,34.32,944.78,58.71,59.41,0,1,0.3571,0.1282,0.9542,27.53,-2.32,35.22,91,41,35,,,-20.3502,7.6521,336.3385,160.481,0.5,-20.3502,7.6521,951.34,58.5096121044425,58.85,-0.9606854872003066,58.5096121044425,-1.2899885002562699,0.0,-0.1783376998925874,8.206962499138825,-15.486446447830303,58.5096121044425,336.3385
322,171658,34.31,944.75,59.0,59.41,0,1,0.3669,0.1168,0.9219,11.78,8.48,30.03,98,46,43,,,-21.5454,7.220600000000001,334.4138,160.981,0.5,-21.5454,7.2206,951.34,58.77712782489588,59.14,-1.354772971216048,58.77712782489588,-1.4007529380667267,-0.26750884247159235,-0.6241926487112224,8.099465087114929,-15.021938444557804,58.77712782489588,334.4138
323,172158,34.31,944.81,58.4,59.41,0,1,0.3771,0.1293,0.918,-2.87,-1.89,-1.16,99,45,37,,,-22.135000000000005,8.017400000000002,336.0275,161.481,0.5,-22.135,8.0174,951.34,58.24210326197091,58.54,-1.4306646248742783,58.24210326197091,-1.6187877165729847,-0.6241926487112224,-0.17832394498227444,7.99063513380861,-14.566747553710684,58.24210326197091,336.0275
324,172658,34.31,944.82,58.39,59.41,0,1,0.3812,0.1208,0.9346,-17.09,-4.82,-36.93,98,43,40,,,-22.0238,7.3648,336.3724,161.981,0.5,-22.0238,7.3648,951.34,58.152935176184656,58.53,-1.2801475042942931,58.152935176184656,-1.6545185749647098,-0.4458327874538668,3.7443930757774524e-05,7.878352627790861,-14.140422050767711,58.152935176184656,336.3724
325,173158,34.31,944.86,58.01,59.41,0,1,0.3617,0.1277,0.9176,-25.21,3.91,-35.28,88,41,37,,,-21.3266,7.9228,335.3471,162.481,0.5,-21.3266,7.9228,951.34,57.796270474517044,58.15,-1.3676810236620334,57.796270474517044,-1.7669577927906395,-0.6241552047804646,0.4458327874538668,7.7645537098755,-13.739077583668404,57.796270474517044,335.3471
326,173658,34.29,944.89,57.76,59.41,0,1,0.3654,0.1292,0.899,-15.75,-8.06,-24.48,80,40,39,,,-21.9158,8.1783,333.1533,162.981,0.5,-21.9158,8.1783,951.34,57.52877997140419,57.9,-1.5801677392669364,57.52877997140419,-1.7046944416160716,0.0,0.8024814427744005,7.657700871350471,-13.34769336100328,57.52877997140419,333.1533
327,174158,34.29,944.86,57.98,59.41,0,1,0.3729,0.1312,0.8973,3.23,-8.0,1.95,81,43,37,,,-22.3528,8.3186,331.4235,163.481,0.5,-22.3528,8.3186,951.34,57.796270474517044,58.12,-1.630323293167587,57.796270474517044,-1.6204619794685982,0.17832623799393588,0.35666470166761144,7.563977134045842,-12.9687530096503,57.796270474517044,331.4235
328,174658,34.29,944.87,57.93,59.41,0,1,0.3883,0.1216,0.8873,10.56,0.0,22.28,80,41,40,,,-23.44,7.8035000000000005,331.42,163.981,0.5,-23.44,7.8035,951.34,57.70710620939813,58.07,-1.818338805829626,57.70710620939813,-1.567532687699737,0.35666470166761144,-0.44581444888750354,7.474587909655725,-12.619799243068996,57.70710620939813,331.4200000000001
329,175158,34.28,944.82,58.37,59.41,0,1,0.3702,0.1149,0.9453,13.67,8.24,29.05,88,42,40,,,-21.2441,6.9302,333.7179,164.481,0.5,-21.2441,6.9302,951.34,58.152935176184656,58.51,-1.1225531089717324,58.152935176184656,-1.5083688984215917,-0.26748821089356767,-0.7133294033352229,7.373367004120411,-12.301808468886179,58.152935176184656,333.7179
330,175658,34.28,944.9,57.67,59.41,0,1,0.3604,0.1216,0.8977,23.44,-6.65,20.14,91,41,35,,,-21.6945,7.7142,336.0918,164.981,0.5,-21.6945,7.7142,951.34,57.43961799850456,57.81,-1.5787317799592946,57.43961799850456,-1.6507114261566966,-0.35666470166761144,-0.08915204040381042,7.257693284868608,-11.990221336616287,57.43961799850456,336.0918
331,176158,34.28,944.86,57.98,59.41,0,1,0.3837,0.1222,0.9172,-16.91,1.83,-3.48,94,43,37,,,-22.5225,7.588900000000001,335.3419,165.481,0.5,-22.5225,7.5889,951.34,57.796270474517044,58.12,-1.475922979049662,57.796270474517044,-1.7113286942201444,-0.3566402512973781,-0.2674691088315768,7.135462766465594,-11.680111288050398,57.796270474517044,335.3419
332,176658,34.27,944.94,57.32,59.41,0,1,0.3696,0.1058,0.9165,-8.97,-9.16,-15.01,92,42,41,,,-21.8317,6.585,334.5181,165.981,0.5,-21.8317,6.585,951.34,57.08297774720718,57.46,-1.4333892082186417,57.08297774720718,-1.8267268023860397,-0.6241338104991883,0.3566402512973781,6.999824003253224,-11.383114624013729,57.08297774720718,334.5181
333,177158,34.27,944.93,57.41,59.41,0,1,0.389,0.1259,0.9336,-11.17,-1.22,-27.95,88,41,38,,,-22.4371,7.680300000000001,334.8005,166.481,0.5,-22.4371,7.6803,951.34,57.172136664017856,57.55,-1.3217111447078846,57.172136664017856,-1.6583882498266547,0.0,0.6241338104991883,6.84414506106539,-11.101799873513414,57.172136664017856,334.8005
334,177658,34.25,944.94,57.29,59.41,0,1,0.3983,0.1169,0.9556,-23.38,-0.85,-19.84,82,40,33,,,-22.476,6.9744,332.9889,166.981,0.5,-22.476,6.9744,951.34,57.08297774720718,57.43,-1.1372640987580123,57.08297774720718,-1.4846801994704406,0.0,0.08915891681067478,6.674098716862957,-10.850335997842535,57.08297774720718,332.9889
335,178158,34.25,944.93,57.39,59.41,0,1,0.3816,0.1365,0.9122,11.41,-5.0,0.49,80,41,34,,,-22.476,8.5105,332.7541,167.481,0.5,-22.476,8.5105,951.34,57.172136664017856,57.53,-1.5060051190160326,57.172136664017856,-1.4620688670487465,0.08915891681067478,0.2674813344867033,6.500258794306532,-10.636743178295433,57.172136664017856,332.7541
336,178658,34.18,944.93,57.4,59.41,0,1,0.3752,0.1313,0.9097,8.18,7.63,18.01,84,43,38,,,-22.206,8.213,332.5072,167.981,0.5,-22.206,8.213,951.34,57.172136664017856,57.54,-1.5085446739180597,57.172136664017856,-1.3884003578429498,0.2674813344867033,-0.08915891681067478,6.341280118131962,-10.446702035532212,57.172136664017856,332.5072
337,179158,34.17,944.9,57.63,59.41,0,1,0.3606,0.1193,0.8988,21.55,-0.12,38.27,90,43,39,,,-21.6884,7.5608,334.1857,168.481,0.5,-21.6884,7.5608,951.34,57.43961799850456,57.77,-1.570016360483554,57.43961799850456,-1.448939025389818,0.0,-0.6241215857840814,6.200731953087725,-10.257392158893936,57.43961799850456,334.1857
338,179658,34.15,944.93,57.4,59.41,0,1,0.3632,0.1373,0.9302,20.08,9.95,31.31,96,44,38,,,-21.12,8.3964,336.2991,168.981,0.5,-21.12,8.3964,951.34,57.172136664017856,57.54,-1.231684853303577,57.172136664017856,-1.4954010517935303,-0.3566402512973781,-0.17831706963356453,6.075582079009905,-10.050976061161464,57.172136664017856,336.2991
339,180158,34.15,944.94,57.26,59.41,0,1,0.3802,0.1172,0.9191,4.27,-1.28,19.29,100,47,37,,,-22.3104,7.2669,334.4623,169.481,0.5,-22.3104,7.2669,951.34,57.08297774720718,57.4,-1.4440554167615978,57.08297774720718,-1.5377248633274077,-0.17831706963356453,0.08916808473301785,5.965133043440787,-9.833299032807759,57.08297774720718,334.4623
340,180658,34.22,944.95,57.23,59.41,0,1,0.3861,0.1123,0.9233,7.08,0.67,10.31,107,47,40,,,-22.5441,6.9348,335.9591,169.981,0.5,-22.5441,6.9348,951.34,56.99381959438429,57.37,-1.430420832226165,56.99381959438429,-1.5911142418151136,-0.26747216656436024,0.534954264901053,5.847168984658381,-9.623655526624134,56.99381959438429,335.9591
341,181158,34.21,944.97,57.03,59.41,0,1,0.3784,0.1263,0.8942,1.59,-7.32,-4.46,108,50,38,,,-22.7343,8.0395,335.4621,170.481,0.5,-22.7343,8.0395,951.34,56.81550558064282,57.17,-1.6934787745811277,56.81550558064282,-1.5063566876479555,0.3566371952674885,0.35662879145596804,5.711332150782468,-9.431171289782242,56.81550558064282,335.4621
342,181658,34.22,944.91,57.54,59.41,0,1,0.3851,0.1277,0.9244,-1.83,-6.04,-13.92,106,48,40,,,-22.4247,7.8653,335.9287,170.981,0.5,-22.4247,7.8653,951.34,57.35045678965178,57.68,-1.400387760618109,57.35045678965178,-1.4413148370074707,0.0891566248916078,-0.08915127655383515,5.573538636528326,-9.25651080005457,57.35045678965178,335.9287
343,182158,34.21,944.96,57.1,59.41,0,1,0.3811,0.12,0.9103,-4.03,-1.4,-20.51,103,45,37,,,-22.5415,7.509699999999999,336.6248,171.481,0.5,-22.5415,7.5097,951.34,56.90466220553443,57.24,-1.5396845770526972,56.90466220553443,-1.3849427774513285,0.26748591871365335,7.639582548790713e-07,5.438945790233262,-9.098017877409461,56.90466220553443,336.6248
344,182658,34.2,944.88,57.79,59.41,0,1,0.3761,0.1309,0.9346,-10.93,-5.55,-28.08,100,44,42,,,-21.7287,7.973000000000001,336.8768,171.981,0.5,-21.7287,7.973,951.34,57.61794270836543,57.93,-1.248060472575998,57.61794270836543,-1.3095962128762642,0.08915738884986268,-0.8024508798719054,5.30678346296061,-8.948124065942125,57.61794270836543,336.8768
345,183158,34.21,944.95,57.15,59.41,0,1,0.3773,0.1132,0.9364,-10.99,-3.05,-26.0,90,41,36,,,-21.8021,6.893,335.0339,172.481,0.5,-21.8021,6.893,951.34,56.99381959438429,57.29,-1.2499585581547166,56.99381959438429,-1.4680386483551657,-0.5349649611582521,-0.08915738884986268,5.177062513883513,-8.796783215629034,56.99381959438429,335.0339
346,183658,34.18,944.94,57.27,59.41,0,1,0.3799,0.1235,0.942,-16.05,4.21,-22.89,85,41,36,,,-21.7949,7.4691,333.838,172.981,0.5,-21.7949,7.4691,951.34,57.08297774720718,57.410000000000004,-1.1931436322028897,57.08297774720718,-1.3764069763044071,0.0,0.08918183661654666,5.0422965104827,-8.640804782046985,57.08297774720718,333.838
347,184158,34.18,944.95,57.17,59.41,0,1,0.3594,0.1161,0.915,-9.4,1.71,-12.63,80,38,37,,,-21.289,7.231300000000001,334.0773,173.481,0.5,-21.289,7.2313,951.34,56.99381959438429,57.31,-1.3955432510170185,56.99381959438429,-1.5313801093891795,-0.44578312454170543,0.0,4.903162374465168,-8.474540608943812,56.99381959438429,334.0773
348,184658,34.18,944.99,56.83,59.41,0,1,0.3641,0.1144,0.9163,2.14,-4.46,-4.33,78,38,38,,,-21.5192,7.1166,333.0679,173.981,0.5,-21.5192,7.1166,951.34,56.637194622665476,56.97,-1.4039128507419414,56.637194622665476,-1.4888910231734336,0.0,0.8024080962605211,4.762263003864305,-8.285373695383328,56.637194622665476,333.0679
349,185158,34.18,944.95,57.18,59.41,0,1,0.3877,0.1354,0.9122,6.71,-9.03,2.14,78,40,37,,,-22.8024,8.4429,332.3795,174.481,0.5,-22.8024,8.4429,951.34,56.99381959438429,57.32,-1.535273108745125,56.99381959438429,-1.385476727791059,0.3566249717188157,-0.1783140137414705,4.623793686793405,-8.08720072868789,56.99381959438429,332.3795
350,185658,34.17,944.95,57.21,59.41,0,1,0.373,0.1245,0.9227,11.17,0.73,10.13,78,41,39,,,-21.8319,7.684500000000001,331.1392,174.981,0.5,-21.8319,7.6845,951.34,56.99381959438429,57.35,-1.3666223513644504,56.99381959438429,-1.4386299402293463,-0.1783140137414705,-0.44578236056867837,4.497964783872419,-7.904578377989651,56.99381959438429,331.1392
351,186158,34.17,944.97,57.05,59.41,0,1,0.3811,0.121,0.9116,2.5,0.37,14.53,83,42,37,,,-22.5102,7.5609,332.2015,175.481,0.5,-22.5102,7.5609,951.34,56.81550558064282,57.19,-1.5248905027491175,56.81550558064282,-1.497102590685891,-0.08915738884986268,0.08915815278843553,4.38095715893914,-7.735605388788144,56.81550558064282,332.2015
352,186658,34.15,944.96,57.11,59.41,0,1,0.3451,0.1193,0.8473,1.34,5.8,14.22,82,42,39,,,-21.965,8.0146,332.2977,175.981,0.5,-21.965,8.0146,951.34,56.90466220553443,57.25,-2.0482320065991932,56.90466220553443,-1.7105310163080034,-0.08915586095303496,0.44579152814159073,4.266691408641435,-7.562747586586056,56.90466220553443,332.2977
353,187158,34.17,944.98,56.91,59.41,0,1,0.3899,0.1379,0.947,6.53,-2.2,13.18,87,43,38,,,-22.1672,8.285,333.6887,176.481,0.5,-22.1672,8.285,951.34,56.726349719689786,57.05,-1.1715655991900313,56.726349719689786,-1.4119978308381034,0.35663413929172805,0.6241024860894058,4.164139327237677,-7.38166413216436,56.726349719689786,333.6887
354,187658,34.15,944.92,57.49,59.41,0,1,0.3535,0.1235,0.8463,2.81,0.06,3.54,90,41,37,,,-22.4564,8.3025,336.0492,176.981,0.5,-22.4564,8.3025,951.34,57.26129634482616,57.63,-2.0930268270134014,57.26129634482616,-1.460691954517746,0.5349466251363708,-0.8024249034750639,4.080757816692966,-7.204117394221726,57.26129634482616,336.0492
355,188158,34.14,944.92,57.5,59.41,0,1,0.3497,0.1129,0.8611,4.82,-3.05,2.87,90,43,39,,,-21.9328,7.469499999999999,334.0349,177.481,0.5,-21.9328,7.4695,951.34,57.26129634482616,57.64,-1.927939625048345,57.26129634482616,-1.7650380994223909,-0.44579076418333585,-1.5156610964072144,4.008008619714303,-7.016311010868321,57.26129634482616,334.03490000000005
356,188658,34.14,944.97,56.98,59.41,0,1,0.3353,0.1144,0.8579,1.65,-4.7,0.67,92,43,34,,,-21.176800000000004,7.5955,335.1517,177.981,0.5,-21.1768,7.5955,951.34,56.81550558064282,57.12,-1.8967459252353769,56.81550558064282,-2.1358455317836675,-0.9807144712708435,-0.713175846007772,3.9352241072869703,-6.791535660198292,56.81550558064282,335.1517
357,189158,34.14,945.03,56.47,59.41,0,1,0.3629,0.1296,0.8866,0.49,0.43,-9.28,91,41,30,,,-22.0486,8.3164,336.6131,178.481,0.5,-22.0486,8.3164,951.34,56.28058187355531,56.61,-1.7004269154399214,56.28058187355531,-2.377028196399455,-1.1589666101911078,-0.5347533757172087,3.8672892882138683,-6.534406396853228,56.28058187355531,336.6131
358,189658,34.14,945.1,55.87,59.41,0,1,0.3646,0.1168,0.9122,0.18,6.35,-9.22,91,39,41,,,-21.6262,7.2966,336.9372,178.981,0.5,-21.6262,7.2966,951.34,55.65653897045171,56.01,-1.4476237977714999,55.65653897045171,-2.572382679186154,-1.5154678469880523,-0.3564103589851939,3.807577362071555,-6.271725169907768,55.65653897045171,336.9372
359,190158,34.14,945.2,54.97,59.41,0,1,0.3685,0.1171,0.8904,5.07,-9.95,-8.12,88,39,40,,,-22.3096,7.4922,336.0006,179.481,0.5,-22.3096,7.4922,951.34,54.76511402656726,55.11,-1.6970696885194962,54.76511402656726,-2.785737338689369,-1.5153769691763017,0.00022068212788184383,3.744665874337059,-6.018939655049735,54.76511402656726,336.0006
360,190658,34.13,945.27,54.31,59.41,0,1,0.3794,0.1338,0.9464,24.29,-12.08,-2.26,90,43,41,,,-21.6501,8.047,334.5617,179.981,0.5,-21.6501,8.047,951.34,54.14116200127541,54.45,-1.1346968193871996,54.14116200127541,-2.740472887208703,-1.5152471648601704,-0.08889931960639075,3.6784203636657224,-5.784549231266624,54.14116200127541,334.5617
361,191158,34.09,945.37,53.48,59.41,0,1,0.3781,0.1537,0.9065,-6.29,-8.3,7.81,87,44,40,,,-22.3539,9.6232,334.1127,180.481,0.5,-22.3539,9.6232,951.34,53.24986686170709,53.62,-1.5325360308020952,53.24986686170709,-2.8725860313340648,-1.6042762887826925,-0.26711412164601,3.6341494082634966,-5.583372108660683,53.24986686170709,334.1127
362,191658,34.09,945.45,52.75,59.41,0,1,0.359,0.1238,0.9324,0.79,8.54,6.96,89,44,37,,,-20.8908,7.563200000000001,333.4923,180.981,0.5,-20.8908,7.5632,951.34,52.53688571249272,52.89,-1.2028077219876518,52.53688571249272,-2.9101136903873206,-1.7823612865061804,0.08935352601400837,3.624808669173433,-5.408785042298518,52.53688571249272,333.4923
363,192158,34.07,945.57,51.66,59.41,0,1,0.3101,0.0808,0.933,-2.08,8.54,2.2,89,43,36,,,-18.3212,4.9496,332.8794,181.481,0.5,-18.3212,4.9496,951.34,51.46750557520091,51.8,-1.0293039340849444,51.46750557520091,-2.788151359209423,-1.514922762768684,0.6239901351028294,3.6150106221151503,-5.20150910269092,51.46750557520091,332.8794
364,192658,34.06,945.62,51.25,59.41,0,1,0.3768,0.1278,0.9133,-7.63,3.3,-5.0,89,42,36,,,-22.2244,7.965799999999999,334.8342,181.981,0.5,-22.2244,7.9658,951.34,51.021962949724035,51.39,-1.4808016814915108,51.021962949724035,-2.738491850437903,-1.158371151403351,0.0002205047773742308,3.57553657728117,-4.934351286775154,51.021962949724035,334.8342
365,193158,34.09,945.7,50.5,59.41,0,1,0.3478,0.0975,0.9011,-1.46,4.64,-0.85,89,42,38,,,-20.9935,6.1754,333.5865,182.481,0.5,-20.9935,6.1754,951.34,50.30913442379756,50.64,-1.507340072541098,50.30913442379756,-2.833008677136071,-1.5147022579913099,-0.5344009338353288,3.512831508106885,-4.652942427954031,50.30913442379756,333.5865
366,193658,34.09,945.79,49.7,59.41,0,1,0.3284,0.0852,0.8733,8.06,6.29,18.31,90,44,40,,,-20.5193,5.5722,332.1728,182.981,0.5,-20.5193,5.5722,951.34,49.507260691732725,49.84,-1.7271990914476434,49.507260691732725,-3.028662843652822,-1.6927720852386798,-0.7124006423336766,3.417719906628406,-4.357009346319273,49.507260691732725,332.1728
367,194158,34.09,945.89,48.79,59.41,0,1,0.3401,0.1315,0.9915,4.39,0.55,13.73,94,45,37,,,-18.78,7.5549,334.9511,183.481,0.5,-18.78,7.5549,951.34,48.61636233855888,48.93,-0.4975263568808959,48.61636233855888,-2.9273183148371755,-2.2271029003249865,-0.6232067734619093,3.298153775137095,-4.0201228169428305,48.61636233855888,334.9511
368,194658,34.06,946.04,47.44,59.41,0,1,0.3419,0.0765,0.9143,-12.94,-2.99,3.3,97,43,38,,,-20.4377,4.7828,334.4808,183.981,0.5,-20.4377,4.7828,951.34,47.28015779140774,47.58,-1.3566595350425283,47.28015779140774,-3.175758341139156,-2.315978858700589,0.17858907082291609,3.1700884828361353,-3.6518974756806983,47.28015779140774,334.48080000000004
369,195158,34.06,946.15,46.51,59.41,0,1,0.344,0.1212,0.9564,12.39,3.05,2.81,96,46,38,,,-19.6378,7.222300000000001,334.4733,184.481,0.5,-19.6378,7.2223,951.34,46.30038347985829,46.65,-0.8892490994166407,46.30038347985829,-3.0964265370656747,-2.0485138295020704,0.5348072938608794,3.0224057189191598,-3.2668334460510096,46.30038347985829,334.4733
370,195658,34.03,946.27,45.42,59.41,0,1,0.3632,0.1525,0.9534,12.7,2.01,-8.0,94,45,41,,,-20.6148,9.0877,335.7391,184.981,0.5,-20.6148,9.0877,951.34,45.23164396190567,45.56,-0.9714913653310708,45.23164396190567,-2.98183866810071,-1.7811715648397097,0.53465401695248,2.8891601613904214,-2.8925022418316075,45.23164396190567,335.7391
371,196158,34.02,946.35,44.68,59.41,0,1,0.3629,0.0721,0.9724,-14.53,-2.26,5.98,95,44,46,,,-20.4142,4.2405,332.3482,185.481,0.5,-20.4142,4.2405,951.34,44.51921191501858,44.82,-0.8337397343204564,44.51921191501858,-2.7704256276904893,-1.5138598125495903,-0.2667989687672687,2.777397490392474,-2.550800301824097,44.51921191501858,332.3482
372,196658,34.02,946.44,43.93,59.41,0,1,0.3237,0.0896,0.8562,-8.12,-10.99,22.77,99,44,39,,,-20.6069,5.9742,335.2838,185.981,0.5,-20.6069,5.9742,951.34,43.71778414935608,44.07,-1.8848497673794626,43.71778414935608,-3.1578905187891397,-2.0479705336069784,-0.9790764512062182,2.628591263711158,-2.2177184221083053,43.71778414935608,335.2838
373,197158,34.01,946.58,42.7,59.41,0,1,0.2493,0.0997,0.8158,12.45,-1.83,9.7,100,44,40,,,-16.8743,6.9676,337.1046,186.481,0.5,-16.8743,6.9676,951.34,42.4712413814116,42.84,-2.0075238488905556,42.4712413814116,-3.605413716741548,-2.4929362637558086,-0.4446672258264073,2.4516967483951078,-1.8279985459666932,42.4712413814116,337.1046
374,197658,33.99,946.72,41.39,59.41,0,1,0.3365,0.0951,0.9227,-21.0,3.05,-19.9,101,49,42,,,-19.9392,5.8845,332.953,186.981,0.5,-19.9392,5.8845,951.34,41.22484788560027,41.53,-1.2330566685108852,41.22484788560027,-3.6455072871424554,-2.4926377594333857,0.5346194077608786,2.2832447283565926,-1.355282332970205,41.22484788560027,332.953
375,198158,33.98,946.86,40.19,59.41,0,1,0.2849,0.0637,0.9014,-17.94,0.67,9.46,96,46,43,,,-17.498900000000003,4.0422,332.4835,187.481,0.5,-17.4989,4.0422,951.34,39.978603621978216,40.33,-1.273363905889557,39.978603621978216,-3.5075651120564664,-1.95831685599493,0.5345553304907114,2.0996428696150105,-0.8308059122738314,39.978603621978216,332.4835
376,198658,33.98,946.94,39.42,59.41,0,1,0.2968,0.166,0.9016,36.62,5.31,-1.34,97,44,37,,,-17.9394,10.4323,338.7296,187.981,0.5,-17.9394,10.4323,951.34,39.26653102960534,39.56,-1.230276017483114,39.26653102960534,-3.401162890179574,-1.9580824289426744,-0.3555827154641804,1.922630325984926,-0.2684462592798127,39.26653102960534,338.7296
377,199158,33.95,947.08,38.23,59.41,0,1,0.2482,0.1013,0.9695,-12.45,-14.1,-1.59,97,46,41,,,-14.2852,5.965,334.9894,188.481,0.5,-14.2852,5.965,951.34,38.02052119303554,38.37,-0.42817014687886285,38.02052119303554,-3.1814651662323734,-2.3138995714591104,-0.8004087061187946,1.8208254030400468,0.3445598945038455,38.02052119303554,334.9894
378,199658,33.95,947.2,37.18,59.41,0,1,0.3456,0.1191,1.0463,19.04,-0.85,5.62,95,46,40,,,-18.1692,6.494,333.9315,188.981,0.5,-18.1692,6.494,951.34,36.95263145814623,37.32,0.042107996362315936,36.95263145814623,-3.0264378237213,-2.758491135061469,-0.3553455856066208,1.778648539251222,0.9993580452725155,36.95263145814623,333.9315
379,200158,33.94,947.39,35.49,59.41,0,1,0.2957,0.1511,0.885,-41.5,-2.5,-17.88,99,47,39,,,-18.2297,9.6889,336.9123,189.481,0.5,-18.2297,9.6889,951.34,35.26203005797407,35.63,-1.4144187522181255,35.26203005797407,-3.378846518908819,-2.669245157065731,0.0007307583913700455,1.7762362367331974,1.6371107672359813,35.26203005797407,336.9123000000001
380,200658,33.91,947.5,34.5,59.41,0,1,0.3236,0.125,0.8954,18.07,-16.97,15.44,101,43,37,,,-19.6939,7.947299999999999,338.1894,189.981,0.5,-19.6939,7.9473,951.34,34.2833863010805,34.64,-1.44239117906669,34.2833863010805,-3.652614864518142,-2.757760376670099,-0.35507221810702205,1.8343273288627842,2.2217902655155513,34.2833863010805,338.1894
381,201158,33.91,947.7,32.74,59.41,0,1,0.2701,0.0887,0.8666,8.48,18.31,61.16,107,51,38,,,-17.2265,5.8441,334.2779,190.481,0.5,-17.2265,5.8441,951.34,32.504269681303974,32.88,-1.5650994222335357,32.504269681303974,-3.9648821754808576,-3.0243173751727532,0.35643511594273747,1.9221344551213662,2.7790730935103056,32.504269681303974,334.2779
382,201658,33.88,947.84,31.42,59.41,0,1,0.3546,0.152,0.8916,37.35,-3.3,14.28,110,53,42,,,-21.4079,9.6748,335.914,190.981,0.5,-21.4079,9.6748,951.34,31.259068925907744,31.560000000000002,-1.586993554264284,31.259068925907744,-3.9726943886511203,-2.4013252607273614,0.7121967323095006,2.0158989206133526,3.3089795269601154,31.259068925907744,335.914
383,202158,33.87,947.97,30.3,59.41,0,1,0.3435,0.0874,0.9763,-24.9,8.73,-15.14,109,55,45,,,-19.3124,5.1156,331.4957,191.481,0.5,-19.3124,5.1156,951.34,30.102944420576613,30.44,-0.7034260058992439,30.102944420576613,-3.653645142021579,-2.3121206428632526,-0.4439728491820567,2.112561507672382,3.7614781922466136,30.102944420576613,331.4957
384,202658,33.85,948.1,29.14,59.41,0,1,0.3286,0.0914,0.9507,19.23,-27.4,-13.61,104,55,39,,,-18.986,5.4915,330.744,191.981,0.5,-18.986,5.4915,951.34,28.94694828304449,29.28,-0.9096383680588649,28.94694828304449,-3.6874089206704803,-2.845298109909418,-0.3550730015302861,2.1714175492088117,4.139613905866781,28.94694828304449,330.744
385,203158,33.84,948.29,27.5,59.41,0,1,0.2869,0.1676,0.9031,-23.56,30.03,-23.56,104,49,42,,,-17.3462,10.5135,337.9115,192.481,0.5,-17.3462,10.5135,951.34,27.257646310667194,27.64,-1.1763461556277166,27.257646310667194,-3.739452547120739,-2.6671936443935387,0.3562999315394677,2.2192104734557603,4.489716267750282,27.257646310667194,337.9115
386,203658,33.78,948.4,26.48,59.41,0,1,0.3202,0.0774,1.0306,0.79,-14.71,-7.08,106,50,43,,,-17.214000000000002,4.295,333.3465,192.981,0.5,-17.214,4.295,951.34,26.279754638650953,26.62,-0.054059826456218374,26.279754638650953,-3.3406543663558823,-2.4889981783699504,-0.17706004111105145,2.301521705366895,4.836011733019632,26.279754638650953,333.3465
387,204158,33.77,948.57,24.94,59.41,0,1,0.3224,0.0603,0.9905,37.05,45.41,55.97,110,50,38,,,-17.9985,3.4838,333.8269,193.481,0.5,-17.9985,3.4838,951.34,24.768648132297244,25.080000000000002,-0.4876712708465996,24.768648132297244,-3.3377445630209848,-2.84425368550459,0.35604461139405785,2.3453421131443264,5.187068843113025,24.768648132297244,333.8269
388,204658,33.73,948.72,23.64,59.41,0,1,0.2722,0.1086,0.9617,-12.94,2.2,-11.96,112,58,43,,,-15.7088,6.4428,332.7251,193.981,0.5,-15.7088,6.4428,951.34,23.435500953146363,23.78,-0.5782646605618937,23.435500953146363,-3.128902451193252,-2.1329535669758926,0.8892798463330678,2.316604774686013,5.5552653049550145,23.435500953146363,332.7251
389,205158,33.73,948.81,22.82,59.41,0,1,0.3767,0.0327,0.9159,-7.57,-41.93,-21.0,106,49,40,,,-22.344,2.0447,330.8442,194.481,0.5,-22.344,2.0447,951.34,22.63569456532135,22.96,-1.513850506061641,22.63569456532135,-3.2422097492065562,-1.9549738391715223,-0.17725320527794253,2.225242438029909,5.921866803641137,22.63569456532135,330.8442
390,205658,33.76,948.94,21.63,59.41,0,1,0.3237,0.1089,0.8774,-5.43,12.88,-6.9,102,50,41,,,-20.1088,7.0752,333.5953,194.981,0.5,-20.1088,7.0752,951.34,21.48052711397484,21.77,-1.6460630061515193,21.48052711397484,-3.4802297589394895,-2.310206772253835,-0.8879694565972684,2.0493092128108543,6.226008111231408,21.48052711397484,333.5953
391,206158,33.76,949.07,20.56,59.41,0,1,0.2753,0.1166,0.9955,-24.35,-9.58,-13.12,100,48,45,,,-15.3585,6.6804,334.9236,195.481,0.5,-15.3585,6.6804,951.34,20.325487793067516,20.7,-0.2361324522736657,20.325487793067516,-3.3465117553071453,-2.842943295768791,-0.4436008787602539,1.8518991293175873,6.48790766775096,20.325487793067516,334.9236
392,206658,33.74,949.26,18.8,59.41,0,1,0.3456,0.0994,1.0663,12.33,32.1,41.93,103,49,38,,,-17.8855,5.3257,333.7971,195.981,0.5,-17.8855,5.3257,951.34,18.63758381820605,18.94,0.23626359233872601,18.63758381820605,-3.070189189763218,-2.753807651014089,1.1553128527003906,1.6876025779259436,6.754760369433825,18.63758381820605,333.7971
393,207158,33.73,949.38,17.79,59.41,0,1,0.2659,0.0863,0.9221,10.13,2.32,21.3,110,55,44,,,-16.0192,5.3468,332.8512,196.481,0.5,-16.0192,5.3468,951.34,17.571680142053427,17.93,-0.9793762604136849,17.571680142053427,-2.9357950276695073,-1.6876304430684002,1.2439641689546654,1.53014944639024,7.027394160792255,17.571680142053427,332.8512
394,207658,33.71,949.45,17.14,59.41,0,1,0.3749,0.1282,0.8594,7.93,-2.56,-2.75,108,56,36,,,-23.3383,8.484500000000002,332.4997,196.981,0.5,-23.3383,8.4845,951.34,16.94995337513765,17.28,-2.0479417977904273,16.94995337513765,-3.143125111729622,-1.5098434820594235,-0.08852725851852483,1.3756744756285428,7.2766913207664174,16.94995337513765,332.4997
395,208158,33.69,949.55,16.27,59.41,0,1,0.3248,0.1298,0.9454,13.92,34.24,-21.42,110,56,40,,,-18.7968,7.8176,333.4925,197.481,0.5,-18.7968,7.8176,951.34,16.061836659994004,16.41,-0.9199009671446778,16.061836659994004,-2.994102964063616,-1.776157701586925,-0.7989056030019182,1.2498207149768916,7.4404835372899925,16.061836659994004,333.4925
396,208658,33.67,949.65,15.36,59.41,0,1,0.2477,0.1085,0.9127,-14.16,-28.02,-36.13,104,52,42,,,-15.082600000000001,6.7794,333.9958,197.981,0.5,-15.0826,6.7794,951.34,15.173795673550725,15.5,-1.0005642394655312,15.173795673550725,-3.099173084218035,-2.3087490850613417,0.00030285710040800495,1.1722439301779701,7.565966257104378,15.173795673550725,333.9958
397,209158,33.66,949.81,13.93,59.41,0,1,0.3015,0.1445,1.0017,4.64,6.53,-54.81,92,47,46,,,-16.589,8.2086,334.0768,198.481,0.5,-16.589,8.2086,951.34,13.753087574932662,14.07,-0.2371421498052198,13.753087574932662,-2.737114387575936,-1.775854844486517,1.0657884522991203,1.1567650291704155,7.738184311580653,13.753087574932662,334.0768
398,209658,33.64,949.85,13.6,59.41,0,1,0.335,0.1814,1.1257,1.22,3.17,-47.55,83,47,43,,,-16.3729,9.1542,331.8557,198.981,0.5,-16.3729,9.1542,951.34,13.397940829064208,13.74,0.9561250108371624,13.397940829064208,-1.9203547990256435,-1.2429606327622214,0.799263731046393,1.2327040845225952,7.916585555687448,13.397940829064208,331.8557
399,210158,33.62,949.95,12.75,59.41,0,1,0.369,0.0614,1.1099,-22.77,-18.13,-0.85,79,43,42,,,-18.3638,3.1664,327.4855,199.481,0.5,-18.3638,3.1664,951.34,12.51012694217044,12.89,0.5812079136278786,12.51012694217044,-1.4120309326211775,-0.976591113440124,0.4439928336804293,1.3601888770804464,8.039345111909256,12.51012694217044,327.4855
400,210658,33.6,949.96,12.62,59.41,0,1,0.3364,0.1406,0.8577,7.2,6.77,31.56,78,37,36,,,-21.1587,9.3095,336.0593,199.981,0.5,-21.1587,9.3095,951.34,12.421349715624084,12.76,-1.8779328412779788,12.421349715624084,-1.833654168534042,-0.798967799081792,0.266400540904689,1.4564247835701565,8.088816128829421,12.421349715624084,336.0593
401,211158,33.59,950.04,11.87,59.41,0,1,0.2979,0.106,0.905,-15.38,7.57,-32.1,84,41,37,,,-18.1044,6.6804,333.8239,200.481,0.5,-18.1044,6.6804,951.34,11.711159143088649,12.01,-1.2568529118040532,11.711159143088649,-1.878117273802524,-0.7101905725354349,0.26635664645935186,1.5369434782510183,8.085506641663414,11.711159143088649,333.8239
402,211658,33.58,950.04,11.92,59.41,0,1,0.3346,0.0746,0.9111,-29.85,30.4,7.81,82,34,37,,,-20.1038,4.6809,335.9041,200.981,0.5,-20.1038,4.6809,951.34,11.711159143088649,12.06,-1.3609220000851758,11.711159143088649,-1.8832559001042213,-0.5326111526224402,-0.35500449892762376,1.6025638993097857,8.068654314149057,11.711159143088649,335.9041
403,212158,33.58,950.1,11.37,59.41,0,1,0.3301,0.1271,0.8694,16.78,-22.58,-0.79,83,38,42,,,-20.5909,8.3173,336.2484,201.481,0.5,-20.5909,8.3173,951.34,11.178547990466209,11.51,-1.7409748261504079,11.178547990466209,-2.19089389927397,-1.0651950714630587,-0.6212862552123113,1.6264607362829793,8.031848225014642,11.178547990466209,336.24840000000006
404,212658,33.58,950.16,10.82,59.41,0,1,0.4297,0.1582,0.8451,12.82,-9.95,-7.93,87,38,38,,,-26.5549,10.6029,338.5186,201.981,0.5,-26.5549,10.6029,951.34,10.64596407162559,10.96,-2.4416659072907643,10.64596407162559,-2.6591170378911517,-1.1538974078347515,-0.26614559827204154,1.6502898038880005,7.895735403038657,10.64596407162559,338.51860000000005
405,213158,33.58,950.23,10.19,59.41,0,1,0.3694,0.1366,0.9912,36.01,23.32,52.61,91,41,38,,,-20.2637,7.8467,336.4666,202.481,0.5,-20.2637,7.8467,951.34,10.024650582631457,10.33,-0.615205836476314,10.024650582631457,-2.4215935273312392,-1.3313406697351002,0.26637099410973875,1.7033832327917082,7.602780081560468,10.024650582631457,336.4666
406,213658,33.55,950.31,9.5,59.41,0,1,0.3661,0.1245,0.8813,35.34,14.47,79.16,100,45,41,,,-22.3586,8.0409,336.1863,202.981,0.5,-22.3586,8.0409,951.34,9.31462340189049,9.64,-1.776358353535789,9.31462340189049,-2.502357273974427,-0.8875264137250127,0.17764971787784845,1.7725174628668157,7.2068911017681785,9.31462340189049,336.1863
407,214158,33.55,950.33,9.34,59.41,0,1,0.3854,0.1045,0.9479,-5.8,15.93,42.24,112,49,38,,,-22.0053,6.2911,335.8124,203.481,0.5,-22.0053,6.2911,951.34,9.137124168906444,9.48,-1.1708055763288776,9.137124168906444,-2.4430703587116613,-1.1536909518572518,-0.6210949580024057,1.8274151248240713,6.761693710107011,9.137124168906444,335.8124
408,214658,33.51,950.44,8.34,59.41,0,1,0.3937,0.1484,0.8788,29.6,-8.73,61.46,122,58,37,,,-23.8331,9.5849,335.8434,203.981,0.5,-23.8331,9.5849,951.34,8.160932450033238,8.48,-1.9078365859111988,8.160932450033238,-2.7675328916873134,-1.5086213717274184,-0.3547890551540931,1.858699070001819,6.256904278684829,8.160932450033238,335.8434
409,215158,33.51,950.5,7.82,59.41,0,1,0.3733,0.1443,0.9459,48.71,23.13,60.79,115,73,46,,,-21.312600000000003,8.6738,326.6971,204.481,0.5,-21.3126,8.6738,951.34,7.628502797179026,7.96,-1.1027881758418918,7.628502797179026,-2.715444655409288,-1.5084800070113449,0.7100279159274407,1.9004563298768602,5.690956837243334,7.628502797179026,326.6971
410,215658,33.49,950.61,6.86,59.41,0,1,0.3203,0.0953,1.0305,36.01,37.05,70.62,85,76,55,,,-17.1973,5.2836,313.4609,204.981,0.5,-17.1973,5.2836,951.34,6.652452443021893,7.0,-0.044822458564263534,6.652452443021893,-2.0914350750609394,-0.7985934557999776,0.8874046684265551,1.9565859428083456,5.131521357831161,6.652452443021893,313.4609
411,216158,33.44,950.59,7.0,59.41,0,1,0.4037,0.16,0.8627,19.71,25.88,67.5,74,62,47,,,-24.7073,10.5069,315.028,205.481,0.5,-24.7073,10.5069,951.34,6.829909341379048,7.14,-2.1163078080018227,6.829909341379048,-2.3067510989028306,-0.6210753385847898,-0.7984098097138492,2.0114293735703512,4.6121037132108995,6.829909341379048,315.028
412,216658,33.42,950.68,6.25,59.41,0,1,0.4376,0.0806,0.8324,21.55,-29.05,7.75,75,53,52,,,-27.6213,5.5306,313.2825,205.981,0.5,-27.6213,5.5306,951.34,6.031377104437103,6.39,-2.7008613188506425,6.031377104437103,-2.9704555940567103,-1.5970032655138269,-0.2661109153250685,2.0435804947015015,4.042413483168275,6.031377104437103,313.2825
413,217158,33.42,950.77,5.47,59.41,0,1,0.4252,0.131,0.8939,16.54,-1.04,28.26,71,53,50,,,-25.2036,8.3373,315.9857,206.481,0.5,-25.2036,8.3373,951.34,5.2329060758652215,5.609999999999999,-1.9182562909635132,5.2329060758652215,-2.915451244328931,-0.8871862539098583,-0.17715770973778966,2.012029222833874,3.365652284244561,5.2329060758652215,315.9857
414,217658,33.41,950.78,5.32,59.41,0,1,0.4114,0.1433,1.0936,62.74,9.22,69.4,59,52,44,,,-20.4555,7.4652,312.5144,206.981,0.5,-20.4555,7.4652,951.34,5.144190850527245,5.46,0.2924933039999093,5.144190850527245,-2.437523386636523,-1.7741609752516165,-0.886959613768838,1.9431992450219155,2.6206696667742335,5.144190850527245,312.5144
415,218158,33.44,950.97,3.66,59.41,0,0,0.3679,0.1121,0.9235,38.94,31.43,92.1,66,37,34,,,-21.5775,6.921,328.4596,207.481,0.5,-21.5775,6.921,951.34,3.458745100613605,3.8000000000000003,-1.3461900517877174,3.458745100613605,-2.6651275642464864,-1.7741458676786963,0.7985012149607029,1.8773673688865387,1.8773083504163424,3.458745100613605,328.4596
416,218658,33.41,950.98,3.56,59.41,0,0,0.3499,0.1227,0.8644,1.95,-5.37,67.38,92,36,29,,,-21.8395,8.0791,340.0717,207.981,0.5,-21.8395,8.0791,951.34,3.370044982848549,3.7,-1.8847038318603775,3.370044982848549,-2.7302062402147547,-0.9756597602909136,0.6211130571812356,1.8109174540145005,1.1956942515222408,3.370044982848549,340.0717
417,219158,33.4,951.08,2.72,59.41,0,0,0.443,0.1761,0.9873,71.59,-14.77,69.89,107,46,34,,,-23.8323,10.1132,339.0387,208.481,0.5,-23.8323,10.1132,951.34,2.4830853403226913,2.8600000000000003,-0.9478877794845657,2.4830853403226913,-2.5204443568038455,-1.1530328104974608,0.3548329388653808,1.7651256970024036,0.5499260943115587,2.4830853403226913,339.0387
418,219658,33.4,951.11,2.43,59.41,0,0,0.3474,0.191,1.0214,74.58,10.38,86.73,102,65,46,,,-18.4861,10.5919,328.7103,208.981,0.5,-18.4861,10.5919,951.34,2.217012172351088,2.5700000000000003,-0.15434761882575554,2.217012172351088,-1.938687717952993,-0.6208268214255328,0.26617132607300165,1.7969395346785149,-0.1022416717729584,2.217012172351088,328.7103
419,220158,33.41,951.15,2.08,59.41,0,0,0.4109,0.1417,0.8602,37.78,-1.95,45.9,86,59,50,,,-25.2358,9.3543,321.511,209.481,0.5,-25.2358,9.3543,951.34,1.8622585188971585,2.22,-2.2007482514244208,1.8622585188971585,-2.321661723918289,-0.8868614844244591,-0.9754151457094931,1.7968791884666473,-0.4050024074668954,1.8622585188971585,321.511
420,220658,33.4,951.21,1.49,59.41,0,0,0.5145,0.1616,0.9012,-45.53,-22.77,49.8,78,59,48,,,-29.333499999999997,10.166,315.3504,209.981,0.5,-29.3335,10.166,951.34,1.330150687926629,1.63,-2.2776944137349617,1.330150687926629,-2.8390866095688554,-1.5962419671350259,0.35478082974632374,1.7113135128253845,-0.3600021399705611,1.330150687926629,315.3504
421,221158,33.4,951.33,0.47,59.41,0,0,0.5504,0.189,1.0118,60.61,-36.07,99.0,81,65,54,,,-28.134800000000002,10.5807,313.6777,210.481,0.5,-28.1348,10.5807,951.34,0.2660165517621327,0.61,-1.2169791389392621,0.2660165517621327,-2.475744337585036,-0.5320806546781354,1.5962419671350259,1.6298223931670321,-0.3200019021960543,0.2660165517621327,313.6777000000001
422,221658,33.4,951.27,1.03,59.41,0,0,0.4413,0.1237,1.0348,36.25,13.61,54.08,55,64,45,,,-22.95,6.8168,300.5486,210.981,0.5,-22.95,6.8168,951.34,0.7980700332484936,1.17,-0.48268947121955513,0.7980700332484936,-1.8113927154632092,0.0,-0.7093352047391621,1.5522118030162204,-0.28444613528540685,0.7980700332484936,300.5486
423,222158,33.39,951.33,0.42,59.41,0,0,0.3357,0.1257,0.8508,34.79,8.24,82.82,55,45,33,,,-21.3223,8.4043,316.6022,211.481,0.5,-21.3223,8.4043,951.34,0.2660165517621327,0.56,-1.9631041333742174,0.2660165517621327,-2.2757684745726445,-1.2414158594172975,-0.7980292792732635,1.4782969552535405,-0.25284100914257124,0.2660165517621327,316.6022
424,222658,33.39,951.41,-0.22,59.41,0,0,0.4305,0.1393,0.9955,0.92,-13.37,41.99,71,40,26,,,-23.1842,7.9657,329.49,211.981,0.5,-23.1842,7.9657,951.34,-0.4433458261688039,-0.07999999999999999,-0.8396151258081388,-0.4433458261688039,-2.063060451408897,-0.7980292792732635,1.5960910110454496,1.4079018621462325,-0.22474756368228554,-0.4433458261688039,329.49
425,223158,33.38,951.42,-0.35,59.41,0,0,0.7859,0.189,0.9911,-131.23,-160.77,54.2,75,41,43,,,-37.9158,10.7965,322.3239,212.481,0.5,-37.9158,10.7965,951.34,-0.5320127275111308,-0.20999999999999996,-2.8467629967076618,-0.5320127275111308,-2.206069582632435,0.3546751516281521,1.2413713322437425,1.3408589163297506,-0.19977561216205686,-0.5320127275111308,322.3239
426,223658,33.38,951.37,0.15,59.41,0,0,0.4153,0.2245,0.8907,-39.86,172.36,23.68,97,41,31,,,-24.3288,14.1467,343.022,212.981,0.5,-24.3288,14.1467,951.34,-0.0886706745406518,0.29000000000000004,-1.7813378227242702,-0.0886706745406518,-1.9167116450062203,0.443342052970479,-0.08866086395333372,1.2770084917426203,-0.17757832192182832,-0.0886706745406518,343.022
427,224158,33.36,951.37,0.13,59.41,0,0,0.8484,-0.0098,0.4344,-36.5,-18.19,-59.08,77,37,21,,,-62.8806,-1.2924,292.9493,213.481,0.5,-62.8806,-1.2924,951.34,-0.0886706745406518,0.27,-9.824849052939582,-0.0886706745406518,-4.464086018425735,0.2660142876748184,0.17736851761722683,1.2161985635644044,-0.15784739726382213,-0.0886706745406518,292.9493
428,224658,33.36,951.34,0.36,59.41,0,0,0.8872,0.1949,0.4858,-32.04,9.4,-69.09,69,41,28,,,-59.459900000000005,21.8604,315.8491,213.981,0.5,-59.4599,21.8604,951.34,0.17734361313416658,0.5,-9.23889498377192,0.17734361313416658,-5.848785483345228,0.6207105705877058,-0.08866765569850665,1.1582843462518184,-0.14030879756785453,0.17734361313416658,315.8491000000001
429,225158,33.36,951.3,0.76,59.41,0,0,0.7091,-0.2205,0.361,2.87,-16.54,30.82,59,44,34,,,-59.1818,-31.416699999999995,270.806,214.481,0.5,-59.1818,-31.4167,951.34,0.532039896047054,0.9,-9.470720729358613,0.532039896047054,-6.996981688024253,0.17734663197631173,-0.9754098724608573,1.103127948811263,-0.12471893117140098,0.532039896047054,270.806
430,225658,33.36,951.32,0.52,59.41,0,0,0.819,0.0071,0.6473,-53.1,-20.51,-50.23,54,42,24,,,-51.67710000000001,0.6284,289.5081,214.981,0.5,-51.6771,0.6284,951.34,0.3546902451104783,0.66,-7.249294374190477,0.3546902451104783,-7.199319017370711,-0.35469930187315146,-1.0640918676989264,1.0505980464869253,-0.11086127215241959,0.3546902451104783,289.5081
